{
  "name": "--NAME--",
  "title": "--TITLE--",
  "resources": [
    {
      "path": "sv.csv",
      "format": "csv",
      "dialect": {
        "delimiter": ","
      },
      "mediatype": "text/csv",
      "schema": {
        "fields": [
          {
            "name": "studyid",
            "type": "string"
          },
          {
            "name": "usubjid",
            "type": "string"
          },
          {
            "name": "visitnum",
            "type": "integer",
            "constraints": {
              "minimum": "1",
              "maximum": "7"
            }
          },
          {
            "name": "visit",
            "type": "string"
          },
          {
            "name": "visitdy",
            "type": "integer",
            "constraints": {
              "minimum": "-16",
              "maximum": "73"
            }
          },
          {
            "name": "svstdtc",
            "type": "date",
            "constraints": {
              "minimum": "2014-02-15",
              "maximum": "2015-02-02"
            }
          },
          {
            "name": "svendtc",
            "type": "date",
            "constraints": {
              "minimum": "2014-02-15",
              "maximum": "2015-02-02"
            }
          },
          {
            "name": "svstdy",
            "type": "integer",
            "constraints": {
              "minimum": "-16",
              "maximum": "72"
            }
          },
          {
            "name": "svendy",
            "type": "integer",
            "constraints": {
              "minimum": "-16",
              "maximum": "72"
            }
          }
        ]
      }
    },
    {
      "path": "ex.csv",
      "format": "csv",
      "dialect": {
        "delimiter": ","
      },
      "mediatype": "text/csv",
      "schema": {
        "fields": [
          {
            "name": "studyid",
            "type": "string"
          },
          {
            "name": "usubjid",
            "type": "string"
          },
          {
            "name": "exseq",
            "type": "integer",
            "constraints": {
              "minimum": "1",
              "maximum": "406"
            }
          },
          {
            "name": "exdose",
            "type": "integer",
            "constraints": {
              "minimum": "0",
              "maximum": "50"
            }
          },
          {
            "name": "exstdtc",
            "type": "date",
            "constraints": {
              "minimum": "2014-03-01",
              "maximum": "2015-02-02"
            }
          }
        ]
      }
    },
    {
      "path": "aedm.csv",
      "format": "csv",
      "dialect": {
        "delimiter": ","
      },
      "mediatype": "text/csv",
      "schema": {
        "fields": [
          {
            "name": "studyid",
            "type": "string"
          },
          {
            "name": "usubjid",
            "type": "string"
          },
          {
            "name": "aeterm",
            "type": "string"
          },
          {
            "name": "aedecod",
            "type": "string"
          },
          {
            "name": "aebodsys",
            "type": "string"
          },
          {
            "name": "aestdtc",
            "type": "date",
            "constraints": {
              "minimum": "2014-02-24",
              "maximum": "2015-01-21"
            }
          },
          {
            "name": "aeendtc",
            "type": "date",
            "constraints": {
              "minimum": "2014-03-04",
              "maximum": "2014-12-10"
            }
          },
          {
            "name": "aeseq",
            "type": "integer",
            "constraints": {
              "minimum": "1",
              "maximum": "241"
            }
          },
          {
            "name": "age",
            "type": "integer",
            "constraints": {
              "minimum": "20",
              "maximum": "65"
            }
          },
          {
            "name": "sex",
            "type": "string"
          },
          {
            "name": "country",
            "type": "string"
          },
          {
            "name": "arm",
            "type": "string"
          },
          {
            "name": "armcd",
            "type": "string"
          },
          {
            "name": "invnam",
            "type": "string"
          },
          {
            "name": "siteid",
            "type": "integer",
            "constraints": {
              "minimum": "101",
              "maximum": "503"
            }
          }
        ]
      }
    },
    {
      "path": "ae.csv",
      "format": "csv",
      "dialect": {
        "delimiter": ","
      },
      "mediatype": "text/csv",
      "schema": {
        "fields": [
          {
            "name": "studyid",
            "type": "string"
          },
          {
            "name": "usubjid",
            "type": "string"
          },
          {
            "name": "aeterm",
            "type": "string"
          },
          {
            "name": "aedecod",
            "type": "string"
          },
          {
            "name": "aebodsys",
            "type": "string"
          },
          {
            "name": "aestdtc",
            "type": "date",
            "constraints": {
              "minimum": "2014-02-24",
              "maximum": "2015-01-21"
            }
          },
          {
            "name": "aeendtc",
            "type": "date",
            "constraints": {
              "minimum": "2014-03-04",
              "maximum": "2014-12-10"
            }
          },
          {
            "name": "aeseq",
            "type": "integer",
            "constraints": {
              "minimum": "1",
              "maximum": "241"
            }
          }
        ]
      }
    },
    {
      "path": "outputs.csv",
      "format": "csv",
      "dialect": {
        "delimiter": ","
      },
      "mediatype": "text/csv",
      "schema": {
        "fields": [
          {
            "name": "outname",
            "type": "string"
          },
          {
            "name": "ord",
            "type": "integer",
            "constraints": {
              "minimum": "1",
              "maximum": "11"
            }
          },
          {
            "name": "col1",
            "type": "string"
          },
          {
            "name": "pbo_2",
            "type": "integer",
            "constraints": {
              "minimum": "2",
              "maximum": "48"
            }
          },
          {
            "name": "trta_2",
            "type": "integer",
            "constraints": {
              "minimum": "3",
              "maximum": "59"
            }
          },
          {
            "name": "trtb_2",
            "type": "integer",
            "constraints": {
              "minimum": "2",
              "maximum": "56"
            }
          },
          {
            "name": "trtc_2",
            "type": "integer",
            "constraints": {
              "minimum": "4",
              "maximum": "75"
            }
          },
          {
            "name": "pbo_1",
            "type": "integer",
            "constraints": {
              "minimum": "2",
              "maximum": "11"
            }
          },
          {
            "name": "trta_1",
            "type": "integer",
            "constraints": {
              "minimum": "3",
              "maximum": "17"
            }
          },
          {
            "name": "trtb_1",
            "type": "integer",
            "constraints": {
              "minimum": "2",
              "maximum": "21"
            }
          },
          {
            "name": "trtc_1",
            "type": "integer",
            "constraints": {
              "minimum": "3",
              "maximum": "20"
            }
          },
          {
            "name": "pbo_3",
            "type": "number",
            "constraints": {
              "minimum": "11.8",
              "maximum": "64.7"
            }
          },
          {
            "name": "trta_3",
            "type": "integer",
            "constraints": {
              "minimum": "12",
              "maximum": "68"
            }
          },
          {
            "name": "trtb_3",
            "type": "number",
            "constraints": {
              "minimum": "6.7",
              "maximum": "70.0"
            }
          },
          {
            "name": "trtc_3",
            "type": "number",
            "constraints": {
              "minimum": "10.7",
              "maximum": "71.4"
            }
          }
        ]
      }
    },
    {
      "path": "lb.csv",
      "format": "csv",
      "dialect": {
        "delimiter": ","
      },
      "mediatype": "text/csv",
      "schema": {
        "fields": [
          {
            "name": "studyid",
            "type": "string"
          },
          {
            "name": "usubjid",
            "type": "string"
          },
          {
            "name": "lbseq",
            "type": "integer",
            "constraints": {
              "minimum": "1",
              "maximum": "506"
            }
          },
          {
            "name": "lbtestcd",
            "type": "string"
          },
          {
            "name": "lbtest",
            "type": "string"
          },
          {
            "name": "lbstresn",
            "type": "number",
            "constraints": {
              "minimum": "3.1",
              "maximum": "124.1"
            }
          },
          {
            "name": "lbstresu",
            "type": "string"
          },
          {
            "name": "lbstnrlo",
            "type": "number",
            "constraints": {
              "minimum": "3.4",
              "maximum": "60.0"
            }
          },
          {
            "name": "lbstnrhi",
            "type": "number",
            "constraints": {
              "minimum": "4.7",
              "maximum": "115.0"
            }
          },
          {
            "name": "visitnum",
            "type": "integer",
            "constraints": {
              "minimum": "1",
              "maximum": "7"
            }
          },
          {
            "name": "visit",
            "type": "string"
          },
          {
            "name": "visitdy",
            "type": "integer",
            "constraints": {
              "minimum": "-16",
              "maximum": "73"
            }
          },
          {
            "name": "lbnrind",
            "type": "string"
          }
        ]
      }
    },
    {
      "path": "dm.csv",
      "format": "csv",
      "dialect": {
        "delimiter": ","
      },
      "mediatype": "text/csv",
      "schema": {
        "fields": [
          {
            "name": "studyid",
            "type": "string"
          },
          {
            "name": "siteid",
            "type": "integer",
            "constraints": {
              "minimum": "101",
              "maximum": "503"
            }
          },
          {
            "name": "subjid",
            "type": "string"
          },
          {
            "name": "usubjid",
            "type": "string"
          },
          {
            "name": "invnam",
            "type": "string"
          },
          {
            "name": "country",
            "type": "string"
          },
          {
            "name": "sex",
            "type": "string"
          },
          {
            "name": "armcd",
            "type": "string"
          },
          {
            "name": "arm",
            "type": "string"
          },
          {
            "name": "actarmcd",
            "type": "string"
          },
          {
            "name": "actarm",
            "type": "string"
          },
          {
            "name": "rfstdtc",
            "type": "date",
            "constraints": {
              "minimum": "2014-03-01",
              "maximum": "2014-11-29"
            }
          },
          {
            "name": "rfendtc",
            "type": "date",
            "constraints": {
              "minimum": "2014-03-01",
              "maximum": "2015-02-02"
            }
          },
          {
            "name": "age",
            "type": "integer",
            "constraints": {
              "minimum": "20",
              "maximum": "65"
            }
          },
          {
            "name": "ageu",
            "type": "string"
          },
          {
            "name": "domain",
            "type": "string"
          }
        ]
      }
    },
    {
      "path": "outputs_type2.csv",
      "format": "csv",
      "dialect": {
        "delimiter": ","
      },
      "mediatype": "text/csv",
      "schema": {
        "fields": [
          {
            "name": "type",
            "type": "string"
          },
          {
            "name": "ord",
            "type": "integer",
            "constraints": {
              "minimum": "1",
              "maximum": "11"
            }
          },
          {
            "name": "outid",
            "type": "string"
          },
          {
            "name": "itemcd",
            "type": "string"
          },
          {
            "name": "item",
            "type": "string"
          },
          {
            "name": "value",
            "type": "string"
          }
        ]
      }
    },
    {
      "path": "tables.csv",
      "format": "csv",
      "dialect": {
        "delimiter": ","
      },
      "mediatype": "text/csv",
      "schema": {
        "fields": [
          {
            "name": "id",
            "type": "string"
          },
          {
            "name": "ord",
            "type": "integer",
            "constraints": {
              "minimum": "1",
              "maximum": "11"
            }
          },
          {
            "name": "col1",
            "type": "string"
          },
          {
            "name": "pbo",
            "type": "string"
          },
          {
            "name": "trta",
            "type": "string"
          },
          {
            "name": "trtb",
            "type": "string"
          },
          {
            "name": "trtc",
            "type": "string"
          }
        ]
      }
    }
  ]
}