studyid,usubjid,lbseq,lbtestcd,lbtest,lbstresn,lbstresu,lbstnrlo,lbstnrhi,visitnum,visit,visitdy,lbnrind
ABC001,ABC001-101-01,1,ALB,Albumin,4.2,g/dL,3.4,4.7,1,SCREENING,-15,NORMAL
ABC001,ABC001-101-01,1,BUN,Blood Urea Nitrogen (BUN),13.1,mg/dL,8,20,1,SCREENING,-15,NORMAL
ABC001,ABC001-101-01,1,CA,Calcium,9.43,mg/dL,8.5,10.5,1,SCREENING,-15,NORMAL
ABC001,ABC001-101-01,1,GLUC,Glucose,66.6,mg/dL,60,115,1,SCREENING,-15,NORMAL
ABC001,ABC001-101-01,2,ALB,Albumin,4.0,g/dL,3.4,4.7,2,BASELINE,1,NORMAL
ABC001,ABC001-101-01,2,BUN,Blood Urea Nitrogen (BUN),15.2,mg/dL,8,20,2,BASELINE,1,NORMAL
ABC001,ABC001-101-01,2,CA,Calcium,9.77,mg/dL,8.5,10.5,2,BASELINE,1,NORMAL
ABC001,ABC001-101-01,2,GLUC,Glucose,106.8,mg/dL,60,115,2,BASELINE,1,NORMAL
ABC001,ABC001-101-01,3,ALB,Albumin,4.2,g/dL,3.4,4.7,3,VISIT 2,15,NORMAL
ABC001,ABC001-101-01,3,BUN,Blood Urea Nitrogen (BUN),13.9,mg/dL,8,20,3,VISIT 2,15,NORMAL
ABC001,ABC001-101-01,3,CA,Calcium,9.22,mg/dL,8.5,10.5,3,VISIT 2,15,NORMAL
ABC001,ABC001-101-01,3,GLUC,Glucose,79.1,mg/dL,60,115,3,VISIT 2,15,NORMAL
ABC001,ABC001-101-01,4,ALB,Albumin,3.9,g/dL,3.4,4.7,4,VISIT 3,28,NORMAL
ABC001,ABC001-101-01,4,BUN,Blood Urea Nitrogen (BUN),11.9,mg/dL,8,20,4,VISIT 3,28,NORMAL
ABC001,ABC001-101-01,4,CA,Calcium,9.25,mg/dL,8.5,10.5,4,VISIT 3,28,NORMAL
ABC001,ABC001-101-01,4,GLUC,Glucose,52.5,mg/dL,60,115,4,VISIT 3,28,LOW
ABC001,ABC001-101-02,5,ALB,Albumin,4.8,g/dL,3.4,4.7,1,SCREENING,-13,HIGH
ABC001,ABC001-101-02,5,BUN,Blood Urea Nitrogen (BUN),19.8,mg/dL,8,20,1,SCREENING,-13,NORMAL
ABC001,ABC001-101-02,5,CA,Calcium,9.47,mg/dL,8.5,10.5,1,SCREENING,-13,NORMAL
ABC001,ABC001-101-02,5,GLUC,Glucose,98.0,mg/dL,60,115,1,SCREENING,-13,NORMAL
ABC001,ABC001-101-02,6,ALB,Albumin,4.7,g/dL,3.4,4.7,2,BASELINE,1,NORMAL
ABC001,ABC001-101-02,6,BUN,Blood Urea Nitrogen (BUN),12.5,mg/dL,8,20,2,BASELINE,1,NORMAL
ABC001,ABC001-101-02,6,CA,Calcium,9.15,mg/dL,8.5,10.5,2,BASELINE,1,NORMAL
ABC001,ABC001-101-02,6,GLUC,Glucose,98.1,mg/dL,60,115,2,BASELINE,1,NORMAL
ABC001,ABC001-101-02,7,ALB,Albumin,4.3,g/dL,3.4,4.7,3,VISIT 2,15,NORMAL
ABC001,ABC001-101-02,7,BUN,Blood Urea Nitrogen (BUN),17.1,mg/dL,8,20,3,VISIT 2,15,NORMAL
ABC001,ABC001-101-02,7,CA,Calcium,9.32,mg/dL,8.5,10.5,3,VISIT 2,15,NORMAL
ABC001,ABC001-101-02,7,GLUC,Glucose,92.8,mg/dL,60,115,3,VISIT 2,15,NORMAL
ABC001,ABC001-101-02,8,ALB,Albumin,4.1,g/dL,3.4,4.7,4,VISIT 3,26,NORMAL
ABC001,ABC001-101-02,8,BUN,Blood Urea Nitrogen (BUN),16.9,mg/dL,8,20,4,VISIT 3,26,NORMAL
ABC001,ABC001-101-02,8,CA,Calcium,8.54,mg/dL,8.5,10.5,4,VISIT 3,26,NORMAL
ABC001,ABC001-101-02,8,GLUC,Glucose,106.1,mg/dL,60,115,4,VISIT 3,26,NORMAL
ABC001,ABC001-101-02,9,ALB,Albumin,3.8,g/dL,3.4,4.7,5,VISIT 4,40,NORMAL
ABC001,ABC001-101-02,9,BUN,Blood Urea Nitrogen (BUN),11.9,mg/dL,8,20,5,VISIT 4,40,NORMAL
ABC001,ABC001-101-02,9,CA,Calcium,9.39,mg/dL,8.5,10.5,5,VISIT 4,40,NORMAL
ABC001,ABC001-101-02,9,GLUC,Glucose,107.8,mg/dL,60,115,5,VISIT 4,40,NORMAL
ABC001,ABC001-101-02,10,ALB,Albumin,4.0,g/dL,3.4,4.7,6,VISIT 5,53,NORMAL
ABC001,ABC001-101-02,10,BUN,Blood Urea Nitrogen (BUN),16.3,mg/dL,8,20,6,VISIT 5,53,NORMAL
ABC001,ABC001-101-02,10,CA,Calcium,10.23,mg/dL,8.5,10.5,6,VISIT 5,53,NORMAL
ABC001,ABC001-101-02,10,GLUC,Glucose,73.1,mg/dL,60,115,6,VISIT 5,53,NORMAL
ABC001,ABC001-101-02,11,ALB,Albumin,4.1,g/dL,3.4,4.7,7,VISIT 6,65,NORMAL
ABC001,ABC001-101-02,11,BUN,Blood Urea Nitrogen (BUN),14.6,mg/dL,8,20,7,VISIT 6,65,NORMAL
ABC001,ABC001-101-02,11,CA,Calcium,9.84,mg/dL,8.5,10.5,7,VISIT 6,65,NORMAL
ABC001,ABC001-101-02,11,GLUC,Glucose,81.0,mg/dL,60,115,7,VISIT 6,65,NORMAL
ABC001,ABC001-101-03,12,ALB,Albumin,3.9,g/dL,3.4,4.7,1,SCREENING,,NORMAL
ABC001,ABC001-101-03,12,BUN,Blood Urea Nitrogen (BUN),18.8,mg/dL,8,20,1,SCREENING,,NORMAL
ABC001,ABC001-101-03,12,CA,Calcium,10.52,mg/dL,8.5,10.5,1,SCREENING,,HIGH
ABC001,ABC001-101-03,12,GLUC,Glucose,76.2,mg/dL,60,115,1,SCREENING,,NORMAL
ABC001,ABC001-101-04,13,ALB,Albumin,3.9,g/dL,3.4,4.7,1,SCREENING,-12,NORMAL
ABC001,ABC001-101-04,13,BUN,Blood Urea Nitrogen (BUN),19.2,mg/dL,8,20,1,SCREENING,-12,NORMAL
ABC001,ABC001-101-04,13,CA,Calcium,9.43,mg/dL,8.5,10.5,1,SCREENING,-12,NORMAL
ABC001,ABC001-101-04,13,GLUC,Glucose,89.6,mg/dL,60,115,1,SCREENING,-12,NORMAL
ABC001,ABC001-101-04,14,ALB,Albumin,3.9,g/dL,3.4,4.7,2,BASELINE,1,NORMAL
ABC001,ABC001-101-04,14,BUN,Blood Urea Nitrogen (BUN),19.0,mg/dL,8,20,2,BASELINE,1,NORMAL
ABC001,ABC001-101-04,14,CA,Calcium,8.32,mg/dL,8.5,10.5,2,BASELINE,1,LOW
ABC001,ABC001-101-04,14,GLUC,Glucose,100.9,mg/dL,60,115,2,BASELINE,1,NORMAL
ABC001,ABC001-101-04,15,ALB,Albumin,3.9,g/dL,3.4,4.7,3,VISIT 2,15,NORMAL
ABC001,ABC001-101-04,15,BUN,Blood Urea Nitrogen (BUN),15.8,mg/dL,8,20,3,VISIT 2,15,NORMAL
ABC001,ABC001-101-04,15,CA,Calcium,9.45,mg/dL,8.5,10.5,3,VISIT 2,15,NORMAL
ABC001,ABC001-101-04,15,GLUC,Glucose,90.2,mg/dL,60,115,3,VISIT 2,15,NORMAL
ABC001,ABC001-101-04,16,ALB,Albumin,4.1,g/dL,3.4,4.7,4,VISIT 3,29,NORMAL
ABC001,ABC001-101-04,16,BUN,Blood Urea Nitrogen (BUN),15.7,mg/dL,8,20,4,VISIT 3,29,NORMAL
ABC001,ABC001-101-04,16,CA,Calcium,9.39,mg/dL,8.5,10.5,4,VISIT 3,29,NORMAL
ABC001,ABC001-101-04,16,GLUC,Glucose,88.5,mg/dL,60,115,4,VISIT 3,29,NORMAL
ABC001,ABC001-101-04,17,ALB,Albumin,3.9,g/dL,3.4,4.7,5,VISIT 4,43,NORMAL
ABC001,ABC001-101-04,17,BUN,Blood Urea Nitrogen (BUN),13.4,mg/dL,8,20,5,VISIT 4,43,NORMAL
ABC001,ABC001-101-04,17,CA,Calcium,9.68,mg/dL,8.5,10.5,5,VISIT 4,43,NORMAL
ABC001,ABC001-101-04,17,GLUC,Glucose,72.5,mg/dL,60,115,5,VISIT 4,43,NORMAL
ABC001,ABC001-101-05,18,ALB,Albumin,4.0,g/dL,3.4,4.7,1,SCREENING,-15,NORMAL
ABC001,ABC001-101-05,18,BUN,Blood Urea Nitrogen (BUN),14.6,mg/dL,8,20,1,SCREENING,-15,NORMAL
ABC001,ABC001-101-05,18,CA,Calcium,10.06,mg/dL,8.5,10.5,1,SCREENING,-15,NORMAL
ABC001,ABC001-101-05,18,GLUC,Glucose,77.1,mg/dL,60,115,1,SCREENING,-15,NORMAL
ABC001,ABC001-101-05,19,ALB,Albumin,3.9,g/dL,3.4,4.7,2,BASELINE,1,NORMAL
ABC001,ABC001-101-05,19,BUN,Blood Urea Nitrogen (BUN),11.6,mg/dL,8,20,2,BASELINE,1,NORMAL
ABC001,ABC001-101-05,19,CA,Calcium,9.48,mg/dL,8.5,10.5,2,BASELINE,1,NORMAL
ABC001,ABC001-101-05,19,GLUC,Glucose,75.5,mg/dL,60,115,2,BASELINE,1,NORMAL
ABC001,ABC001-101-05,20,ALB,Albumin,4.2,g/dL,3.4,4.7,3,VISIT 2,16,NORMAL
ABC001,ABC001-101-05,20,BUN,Blood Urea Nitrogen (BUN),14.0,mg/dL,8,20,3,VISIT 2,16,NORMAL
ABC001,ABC001-101-05,20,CA,Calcium,9.03,mg/dL,8.5,10.5,3,VISIT 2,16,NORMAL
ABC001,ABC001-101-05,20,GLUC,Glucose,85.6,mg/dL,60,115,3,VISIT 2,16,NORMAL
ABC001,ABC001-101-05,21,ALB,Albumin,3.3,g/dL,3.4,4.7,4,VISIT 3,30,LOW
ABC001,ABC001-101-05,21,BUN,Blood Urea Nitrogen (BUN),13.8,mg/dL,8,20,4,VISIT 3,30,NORMAL
ABC001,ABC001-101-05,21,CA,Calcium,9.49,mg/dL,8.5,10.5,4,VISIT 3,30,NORMAL
ABC001,ABC001-101-05,21,GLUC,Glucose,73.2,mg/dL,60,115,4,VISIT 3,30,NORMAL
ABC001,ABC001-101-05,22,ALB,Albumin,3.9,g/dL,3.4,4.7,5,VISIT 4,45,NORMAL
ABC001,ABC001-101-05,22,BUN,Blood Urea Nitrogen (BUN),15.5,mg/dL,8,20,5,VISIT 4,45,NORMAL
ABC001,ABC001-101-05,22,CA,Calcium,9.53,mg/dL,8.5,10.5,5,VISIT 4,45,NORMAL
ABC001,ABC001-101-05,22,GLUC,Glucose,88.4,mg/dL,60,115,5,VISIT 4,45,NORMAL
ABC001,ABC001-101-05,23,ALB,Albumin,4.0,g/dL,3.4,4.7,6,VISIT 5,58,NORMAL
ABC001,ABC001-101-05,23,BUN,Blood Urea Nitrogen (BUN),14.3,mg/dL,8,20,6,VISIT 5,58,NORMAL
ABC001,ABC001-101-05,23,CA,Calcium,10.19,mg/dL,8.5,10.5,6,VISIT 5,58,NORMAL
ABC001,ABC001-101-05,23,GLUC,Glucose,64.9,mg/dL,60,115,6,VISIT 5,58,NORMAL
ABC001,ABC001-102-01,24,ALB,Albumin,3.8,g/dL,3.4,4.7,1,SCREENING,-14,NORMAL
ABC001,ABC001-102-01,24,BUN,Blood Urea Nitrogen (BUN),14.9,mg/dL,8,20,1,SCREENING,-14,NORMAL
ABC001,ABC001-102-01,24,CA,Calcium,11.06,mg/dL,8.5,10.5,1,SCREENING,-14,HIGH
ABC001,ABC001-102-01,24,GLUC,Glucose,90.4,mg/dL,60,115,1,SCREENING,-14,NORMAL
ABC001,ABC001-102-01,25,ALB,Albumin,3.7,g/dL,3.4,4.7,2,BASELINE,1,NORMAL
ABC001,ABC001-102-01,25,BUN,Blood Urea Nitrogen (BUN),11.2,mg/dL,8,20,2,BASELINE,1,NORMAL
ABC001,ABC001-102-01,25,CA,Calcium,9.46,mg/dL,8.5,10.5,2,BASELINE,1,NORMAL
ABC001,ABC001-102-01,25,GLUC,Glucose,94.1,mg/dL,60,115,2,BASELINE,1,NORMAL
ABC001,ABC001-102-02,26,ALB,Albumin,4.2,g/dL,3.4,4.7,1,SCREENING,-12,NORMAL
ABC001,ABC001-102-02,26,BUN,Blood Urea Nitrogen (BUN),11.4,mg/dL,8,20,1,SCREENING,-12,NORMAL
ABC001,ABC001-102-02,26,CA,Calcium,9.34,mg/dL,8.5,10.5,1,SCREENING,-12,NORMAL
ABC001,ABC001-102-02,26,GLUC,Glucose,100.0,mg/dL,60,115,1,SCREENING,-12,NORMAL
ABC001,ABC001-102-02,27,ALB,Albumin,4.1,g/dL,3.4,4.7,2,BASELINE,1,NORMAL
ABC001,ABC001-102-02,27,BUN,Blood Urea Nitrogen (BUN),9.5,mg/dL,8,20,2,BASELINE,1,NORMAL
ABC001,ABC001-102-02,27,CA,Calcium,8.73,mg/dL,8.5,10.5,2,BASELINE,1,NORMAL
ABC001,ABC001-102-02,27,GLUC,Glucose,74.8,mg/dL,60,115,2,BASELINE,1,NORMAL
ABC001,ABC001-102-02,28,ALB,Albumin,4.0,g/dL,3.4,4.7,3,VISIT 2,14,NORMAL
ABC001,ABC001-102-02,28,BUN,Blood Urea Nitrogen (BUN),14.6,mg/dL,8,20,3,VISIT 2,14,NORMAL
ABC001,ABC001-102-02,28,CA,Calcium,9.32,mg/dL,8.5,10.5,3,VISIT 2,14,NORMAL
ABC001,ABC001-102-02,28,GLUC,Glucose,77.3,mg/dL,60,115,3,VISIT 2,14,NORMAL
ABC001,ABC001-102-02,29,ALB,Albumin,4.1,g/dL,3.4,4.7,4,VISIT 3,28,NORMAL
ABC001,ABC001-102-02,29,BUN,Blood Urea Nitrogen (BUN),14.0,mg/dL,8,20,4,VISIT 3,28,NORMAL
ABC001,ABC001-102-02,29,CA,Calcium,8.62,mg/dL,8.5,10.5,4,VISIT 3,28,NORMAL
ABC001,ABC001-102-02,29,GLUC,Glucose,83.8,mg/dL,60,115,4,VISIT 3,28,NORMAL
ABC001,ABC001-102-02,30,ALB,Albumin,4.5,g/dL,3.4,4.7,5,VISIT 4,42,NORMAL
ABC001,ABC001-102-02,30,BUN,Blood Urea Nitrogen (BUN),17.9,mg/dL,8,20,5,VISIT 4,42,NORMAL
ABC001,ABC001-102-02,30,CA,Calcium,8.69,mg/dL,8.5,10.5,5,VISIT 4,42,NORMAL
ABC001,ABC001-102-02,30,GLUC,Glucose,79.3,mg/dL,60,115,5,VISIT 4,42,NORMAL
ABC001,ABC001-102-02,31,ALB,Albumin,4.0,g/dL,3.4,4.7,6,VISIT 5,55,NORMAL
ABC001,ABC001-102-02,31,BUN,Blood Urea Nitrogen (BUN),11.1,mg/dL,8,20,6,VISIT 5,55,NORMAL
ABC001,ABC001-102-02,31,CA,Calcium,9.37,mg/dL,8.5,10.5,6,VISIT 5,55,NORMAL
ABC001,ABC001-102-02,31,GLUC,Glucose,81.3,mg/dL,60,115,6,VISIT 5,55,NORMAL
ABC001,ABC001-102-02,32,ALB,Albumin,4.1,g/dL,3.4,4.7,7,VISIT 6,68,NORMAL
ABC001,ABC001-102-02,32,BUN,Blood Urea Nitrogen (BUN),11.7,mg/dL,8,20,7,VISIT 6,68,NORMAL
ABC001,ABC001-102-02,32,CA,Calcium,9.29,mg/dL,8.5,10.5,7,VISIT 6,68,NORMAL
ABC001,ABC001-102-02,32,GLUC,Glucose,89.1,mg/dL,60,115,7,VISIT 6,68,NORMAL
ABC001,ABC001-102-03,33,ALB,Albumin,4.0,g/dL,3.4,4.7,1,SCREENING,-13,NORMAL
ABC001,ABC001-102-03,33,BUN,Blood Urea Nitrogen (BUN),10.5,mg/dL,8,20,1,SCREENING,-13,NORMAL
ABC001,ABC001-102-03,33,CA,Calcium,9.19,mg/dL,8.5,10.5,1,SCREENING,-13,NORMAL
ABC001,ABC001-102-03,33,GLUC,Glucose,90.8,mg/dL,60,115,1,SCREENING,-13,NORMAL
ABC001,ABC001-102-03,34,ALB,Albumin,4.0,g/dL,3.4,4.7,2,BASELINE,1,NORMAL
ABC001,ABC001-102-03,34,BUN,Blood Urea Nitrogen (BUN),12.6,mg/dL,8,20,2,BASELINE,1,NORMAL
ABC001,ABC001-102-03,34,CA,Calcium,9.64,mg/dL,8.5,10.5,2,BASELINE,1,NORMAL
ABC001,ABC001-102-03,34,GLUC,Glucose,83.5,mg/dL,60,115,2,BASELINE,1,NORMAL
ABC001,ABC001-102-03,35,ALB,Albumin,4.2,g/dL,3.4,4.7,3,VISIT 2,14,NORMAL
ABC001,ABC001-102-03,35,BUN,Blood Urea Nitrogen (BUN),15.6,mg/dL,8,20,3,VISIT 2,14,NORMAL
ABC001,ABC001-102-03,35,CA,Calcium,9.54,mg/dL,8.5,10.5,3,VISIT 2,14,NORMAL
ABC001,ABC001-102-03,35,GLUC,Glucose,96.6,mg/dL,60,115,3,VISIT 2,14,NORMAL
ABC001,ABC001-102-03,36,ALB,Albumin,4.5,g/dL,3.4,4.7,4,VISIT 3,27,NORMAL
ABC001,ABC001-102-03,36,BUN,Blood Urea Nitrogen (BUN),9.6,mg/dL,8,20,4,VISIT 3,27,NORMAL
ABC001,ABC001-102-03,36,CA,Calcium,9.83,mg/dL,8.5,10.5,4,VISIT 3,27,NORMAL
ABC001,ABC001-102-03,36,GLUC,Glucose,69.2,mg/dL,60,115,4,VISIT 3,27,NORMAL
ABC001,ABC001-102-03,37,ALB,Albumin,4.2,g/dL,3.4,4.7,5,VISIT 4,40,NORMAL
ABC001,ABC001-102-03,37,BUN,Blood Urea Nitrogen (BUN),12.3,mg/dL,8,20,5,VISIT 4,40,NORMAL
ABC001,ABC001-102-03,37,CA,Calcium,9.22,mg/dL,8.5,10.5,5,VISIT 4,40,NORMAL
ABC001,ABC001-102-03,37,GLUC,Glucose,101.0,mg/dL,60,115,5,VISIT 4,40,NORMAL
ABC001,ABC001-102-04,38,ALB,Albumin,4.0,g/dL,3.4,4.7,1,SCREENING,-15,NORMAL
ABC001,ABC001-102-04,38,BUN,Blood Urea Nitrogen (BUN),12.1,mg/dL,8,20,1,SCREENING,-15,NORMAL
ABC001,ABC001-102-04,38,CA,Calcium,9.0,mg/dL,8.5,10.5,1,SCREENING,-15,NORMAL
ABC001,ABC001-102-04,38,GLUC,Glucose,57.0,mg/dL,60,115,1,SCREENING,-15,LOW
ABC001,ABC001-102-04,39,ALB,Albumin,3.3,g/dL,3.4,4.7,2,BASELINE,1,LOW
ABC001,ABC001-102-04,39,BUN,Blood Urea Nitrogen (BUN),17.2,mg/dL,8,20,2,BASELINE,1,NORMAL
ABC001,ABC001-102-04,39,CA,Calcium,9.75,mg/dL,8.5,10.5,2,BASELINE,1,NORMAL
ABC001,ABC001-102-04,39,GLUC,Glucose,104.8,mg/dL,60,115,2,BASELINE,1,NORMAL
ABC001,ABC001-102-04,40,ALB,Albumin,4.0,g/dL,3.4,4.7,3,VISIT 2,14,NORMAL
ABC001,ABC001-102-04,40,BUN,Blood Urea Nitrogen (BUN),15.9,mg/dL,8,20,3,VISIT 2,14,NORMAL
ABC001,ABC001-102-04,40,CA,Calcium,9.41,mg/dL,8.5,10.5,3,VISIT 2,14,NORMAL
ABC001,ABC001-102-04,40,GLUC,Glucose,106.2,mg/dL,60,115,3,VISIT 2,14,NORMAL
ABC001,ABC001-102-05,41,ALB,Albumin,4.0,g/dL,3.4,4.7,1,SCREENING,-15,NORMAL
ABC001,ABC001-102-05,41,BUN,Blood Urea Nitrogen (BUN),16.7,mg/dL,8,20,1,SCREENING,-15,NORMAL
ABC001,ABC001-102-05,41,CA,Calcium,8.89,mg/dL,8.5,10.5,1,SCREENING,-15,NORMAL
ABC001,ABC001-102-05,41,GLUC,Glucose,70.1,mg/dL,60,115,1,SCREENING,-15,NORMAL
ABC001,ABC001-102-05,42,ALB,Albumin,3.7,g/dL,3.4,4.7,2,BASELINE,1,NORMAL
ABC001,ABC001-102-05,42,BUN,Blood Urea Nitrogen (BUN),15.0,mg/dL,8,20,2,BASELINE,1,NORMAL
ABC001,ABC001-102-05,42,CA,Calcium,10.19,mg/dL,8.5,10.5,2,BASELINE,1,NORMAL
ABC001,ABC001-102-05,42,GLUC,Glucose,86.8,mg/dL,60,115,2,BASELINE,1,NORMAL
ABC001,ABC001-102-05,43,ALB,Albumin,4.4,g/dL,3.4,4.7,3,VISIT 2,15,NORMAL
ABC001,ABC001-102-05,43,BUN,Blood Urea Nitrogen (BUN),12.9,mg/dL,8,20,3,VISIT 2,15,NORMAL
ABC001,ABC001-102-05,43,CA,Calcium,9.84,mg/dL,8.5,10.5,3,VISIT 2,15,NORMAL
ABC001,ABC001-102-05,43,GLUC,Glucose,73.1,mg/dL,60,115,3,VISIT 2,15,NORMAL
ABC001,ABC001-102-05,44,ALB,Albumin,4.1,g/dL,3.4,4.7,4,VISIT 3,29,NORMAL
ABC001,ABC001-102-05,44,BUN,Blood Urea Nitrogen (BUN),13.8,mg/dL,8,20,4,VISIT 3,29,NORMAL
ABC001,ABC001-102-05,44,CA,Calcium,9.4,mg/dL,8.5,10.5,4,VISIT 3,29,NORMAL
ABC001,ABC001-102-05,44,GLUC,Glucose,78.5,mg/dL,60,115,4,VISIT 3,29,NORMAL
ABC001,ABC001-102-05,45,ALB,Albumin,4.1,g/dL,3.4,4.7,5,VISIT 4,43,NORMAL
ABC001,ABC001-102-05,45,BUN,Blood Urea Nitrogen (BUN),11.7,mg/dL,8,20,5,VISIT 4,43,NORMAL
ABC001,ABC001-102-05,45,CA,Calcium,10.01,mg/dL,8.5,10.5,5,VISIT 4,43,NORMAL
ABC001,ABC001-102-05,45,GLUC,Glucose,74.9,mg/dL,60,115,5,VISIT 4,43,NORMAL
ABC001,ABC001-102-05,46,ALB,Albumin,3.9,g/dL,3.4,4.7,6,VISIT 5,56,NORMAL
ABC001,ABC001-102-05,46,BUN,Blood Urea Nitrogen (BUN),11.1,mg/dL,8,20,6,VISIT 5,56,NORMAL
ABC001,ABC001-102-05,46,CA,Calcium,9.91,mg/dL,8.5,10.5,6,VISIT 5,56,NORMAL
ABC001,ABC001-102-05,46,GLUC,Glucose,81.2,mg/dL,60,115,6,VISIT 5,56,NORMAL
ABC001,ABC001-102-05,47,ALB,Albumin,4.4,g/dL,3.4,4.7,7,VISIT 6,70,NORMAL
ABC001,ABC001-102-05,47,BUN,Blood Urea Nitrogen (BUN),17.4,mg/dL,8,20,7,VISIT 6,70,NORMAL
ABC001,ABC001-102-05,47,CA,Calcium,9.8,mg/dL,8.5,10.5,7,VISIT 6,70,NORMAL
ABC001,ABC001-102-05,47,GLUC,Glucose,100.3,mg/dL,60,115,7,VISIT 6,70,NORMAL
ABC001,ABC001-102-06,48,ALB,Albumin,4.0,g/dL,3.4,4.7,1,SCREENING,-13,NORMAL
ABC001,ABC001-102-06,48,BUN,Blood Urea Nitrogen (BUN),15.4,mg/dL,8,20,1,SCREENING,-13,NORMAL
ABC001,ABC001-102-06,48,CA,Calcium,8.88,mg/dL,8.5,10.5,1,SCREENING,-13,NORMAL
ABC001,ABC001-102-06,48,GLUC,Glucose,90.0,mg/dL,60,115,1,SCREENING,-13,NORMAL
ABC001,ABC001-102-06,49,ALB,Albumin,3.4,g/dL,3.4,4.7,2,BASELINE,1,NORMAL
ABC001,ABC001-102-06,49,BUN,Blood Urea Nitrogen (BUN),12.8,mg/dL,8,20,2,BASELINE,1,NORMAL
ABC001,ABC001-102-06,49,CA,Calcium,10.3,mg/dL,8.5,10.5,2,BASELINE,1,NORMAL
ABC001,ABC001-102-06,49,GLUC,Glucose,103.1,mg/dL,60,115,2,BASELINE,1,NORMAL
ABC001,ABC001-102-06,50,ALB,Albumin,3.8,g/dL,3.4,4.7,3,VISIT 2,15,NORMAL
ABC001,ABC001-102-06,50,BUN,Blood Urea Nitrogen (BUN),17.8,mg/dL,8,20,3,VISIT 2,15,NORMAL
ABC001,ABC001-102-06,50,CA,Calcium,9.46,mg/dL,8.5,10.5,3,VISIT 2,15,NORMAL
ABC001,ABC001-102-06,50,GLUC,Glucose,115.4,mg/dL,60,115,3,VISIT 2,15,HIGH
ABC001,ABC001-102-06,51,ALB,Albumin,3.2,g/dL,3.4,4.7,4,VISIT 3,30,LOW
ABC001,ABC001-102-06,51,BUN,Blood Urea Nitrogen (BUN),11.7,mg/dL,8,20,4,VISIT 3,30,NORMAL
ABC001,ABC001-102-06,51,CA,Calcium,10.08,mg/dL,8.5,10.5,4,VISIT 3,30,NORMAL
ABC001,ABC001-102-06,51,GLUC,Glucose,83.8,mg/dL,60,115,4,VISIT 3,30,NORMAL
ABC001,ABC001-102-07,52,ALB,Albumin,3.6,g/dL,3.4,4.7,1,SCREENING,,NORMAL
ABC001,ABC001-102-07,52,BUN,Blood Urea Nitrogen (BUN),15.3,mg/dL,8,20,1,SCREENING,,NORMAL
ABC001,ABC001-102-07,52,CA,Calcium,9.44,mg/dL,8.5,10.5,1,SCREENING,,NORMAL
ABC001,ABC001-102-07,52,GLUC,Glucose,84.7,mg/dL,60,115,1,SCREENING,,NORMAL
ABC001,ABC001-102-08,53,ALB,Albumin,3.6,g/dL,3.4,4.7,1,SCREENING,,NORMAL
ABC001,ABC001-102-08,53,BUN,Blood Urea Nitrogen (BUN),17.1,mg/dL,8,20,1,SCREENING,,NORMAL
ABC001,ABC001-102-08,53,CA,Calcium,9.5,mg/dL,8.5,10.5,1,SCREENING,,NORMAL
ABC001,ABC001-102-08,53,GLUC,Glucose,86.6,mg/dL,60,115,1,SCREENING,,NORMAL
ABC001,ABC001-102-09,54,ALB,Albumin,4.6,g/dL,3.4,4.7,1,SCREENING,,NORMAL
ABC001,ABC001-102-09,54,BUN,Blood Urea Nitrogen (BUN),17.2,mg/dL,8,20,1,SCREENING,,NORMAL
ABC001,ABC001-102-09,54,CA,Calcium,8.8,mg/dL,8.5,10.5,1,SCREENING,,NORMAL
ABC001,ABC001-102-09,54,GLUC,Glucose,100.8,mg/dL,60,115,1,SCREENING,,NORMAL
ABC001,ABC001-102-10,55,ALB,Albumin,3.6,g/dL,3.4,4.7,1,SCREENING,-13,NORMAL
ABC001,ABC001-102-10,55,BUN,Blood Urea Nitrogen (BUN),13.4,mg/dL,8,20,1,SCREENING,-13,NORMAL
ABC001,ABC001-102-10,55,CA,Calcium,9.5,mg/dL,8.5,10.5,1,SCREENING,-13,NORMAL
ABC001,ABC001-102-10,55,GLUC,Glucose,81.0,mg/dL,60,115,1,SCREENING,-13,NORMAL
ABC001,ABC001-102-10,56,ALB,Albumin,4.2,g/dL,3.4,4.7,2,BASELINE,1,NORMAL
ABC001,ABC001-102-10,56,BUN,Blood Urea Nitrogen (BUN),11.0,mg/dL,8,20,2,BASELINE,1,NORMAL
ABC001,ABC001-102-10,56,CA,Calcium,9.05,mg/dL,8.5,10.5,2,BASELINE,1,NORMAL
ABC001,ABC001-102-10,56,GLUC,Glucose,101.5,mg/dL,60,115,2,BASELINE,1,NORMAL
ABC001,ABC001-102-10,57,ALB,Albumin,4.3,g/dL,3.4,4.7,3,VISIT 2,14,NORMAL
ABC001,ABC001-102-10,57,BUN,Blood Urea Nitrogen (BUN),18.6,mg/dL,8,20,3,VISIT 2,14,NORMAL
ABC001,ABC001-102-10,57,CA,Calcium,9.55,mg/dL,8.5,10.5,3,VISIT 2,14,NORMAL
ABC001,ABC001-102-10,57,GLUC,Glucose,98.1,mg/dL,60,115,3,VISIT 2,14,NORMAL
ABC001,ABC001-102-10,58,ALB,Albumin,3.7,g/dL,3.4,4.7,4,VISIT 3,29,NORMAL
ABC001,ABC001-102-10,58,BUN,Blood Urea Nitrogen (BUN),21.8,mg/dL,8,20,4,VISIT 3,29,HIGH
ABC001,ABC001-102-10,58,CA,Calcium,9.67,mg/dL,8.5,10.5,4,VISIT 3,29,NORMAL
ABC001,ABC001-102-10,58,GLUC,Glucose,93.3,mg/dL,60,115,4,VISIT 3,29,NORMAL
ABC001,ABC001-102-10,59,ALB,Albumin,3.9,g/dL,3.4,4.7,5,VISIT 4,44,NORMAL
ABC001,ABC001-102-10,59,BUN,Blood Urea Nitrogen (BUN),17.5,mg/dL,8,20,5,VISIT 4,44,NORMAL
ABC001,ABC001-102-10,59,CA,Calcium,9.84,mg/dL,8.5,10.5,5,VISIT 4,44,NORMAL
ABC001,ABC001-102-10,59,GLUC,Glucose,96.7,mg/dL,60,115,5,VISIT 4,44,NORMAL
ABC001,ABC001-102-10,60,ALB,Albumin,4.3,g/dL,3.4,4.7,6,VISIT 5,58,NORMAL
ABC001,ABC001-102-10,60,BUN,Blood Urea Nitrogen (BUN),15.5,mg/dL,8,20,6,VISIT 5,58,NORMAL
ABC001,ABC001-102-10,60,CA,Calcium,9.58,mg/dL,8.5,10.5,6,VISIT 5,58,NORMAL
ABC001,ABC001-102-10,60,GLUC,Glucose,79.1,mg/dL,60,115,6,VISIT 5,58,NORMAL
ABC001,ABC001-102-10,61,ALB,Albumin,4.4,g/dL,3.4,4.7,7,VISIT 6,73,NORMAL
ABC001,ABC001-102-10,61,BUN,Blood Urea Nitrogen (BUN),13.7,mg/dL,8,20,7,VISIT 6,73,NORMAL
ABC001,ABC001-102-10,61,CA,Calcium,10.2,mg/dL,8.5,10.5,7,VISIT 6,73,NORMAL
ABC001,ABC001-102-10,61,GLUC,Glucose,85.1,mg/dL,60,115,7,VISIT 6,73,NORMAL
ABC001,ABC001-103-01,62,ALB,Albumin,4.1,g/dL,3.4,4.7,1,SCREENING,-14,NORMAL
ABC001,ABC001-103-01,62,BUN,Blood Urea Nitrogen (BUN),14.5,mg/dL,8,20,1,SCREENING,-14,NORMAL
ABC001,ABC001-103-01,62,CA,Calcium,9.71,mg/dL,8.5,10.5,1,SCREENING,-14,NORMAL
ABC001,ABC001-103-01,62,GLUC,Glucose,97.9,mg/dL,60,115,1,SCREENING,-14,NORMAL
ABC001,ABC001-103-01,63,ALB,Albumin,4.1,g/dL,3.4,4.7,2,BASELINE,1,NORMAL
ABC001,ABC001-103-01,63,BUN,Blood Urea Nitrogen (BUN),12.2,mg/dL,8,20,2,BASELINE,1,NORMAL
ABC001,ABC001-103-01,63,CA,Calcium,8.68,mg/dL,8.5,10.5,2,BASELINE,1,NORMAL
ABC001,ABC001-103-01,63,GLUC,Glucose,81.0,mg/dL,60,115,2,BASELINE,1,NORMAL
ABC001,ABC001-103-01,64,ALB,Albumin,4.4,g/dL,3.4,4.7,3,VISIT 2,15,NORMAL
ABC001,ABC001-103-01,64,BUN,Blood Urea Nitrogen (BUN),15.5,mg/dL,8,20,3,VISIT 2,15,NORMAL
ABC001,ABC001-103-01,64,CA,Calcium,9.16,mg/dL,8.5,10.5,3,VISIT 2,15,NORMAL
ABC001,ABC001-103-01,64,GLUC,Glucose,97.0,mg/dL,60,115,3,VISIT 2,15,NORMAL
ABC001,ABC001-103-01,65,ALB,Albumin,3.5,g/dL,3.4,4.7,4,VISIT 3,29,NORMAL
ABC001,ABC001-103-01,65,BUN,Blood Urea Nitrogen (BUN),19.8,mg/dL,8,20,4,VISIT 3,29,NORMAL
ABC001,ABC001-103-01,65,CA,Calcium,9.72,mg/dL,8.5,10.5,4,VISIT 3,29,NORMAL
ABC001,ABC001-103-01,65,GLUC,Glucose,77.6,mg/dL,60,115,4,VISIT 3,29,NORMAL
ABC001,ABC001-103-01,66,ALB,Albumin,4.0,g/dL,3.4,4.7,5,VISIT 4,41,NORMAL
ABC001,ABC001-103-01,66,BUN,Blood Urea Nitrogen (BUN),14.4,mg/dL,8,20,5,VISIT 4,41,NORMAL
ABC001,ABC001-103-01,66,CA,Calcium,9.62,mg/dL,8.5,10.5,5,VISIT 4,41,NORMAL
ABC001,ABC001-103-01,66,GLUC,Glucose,90.3,mg/dL,60,115,5,VISIT 4,41,NORMAL
ABC001,ABC001-103-01,67,ALB,Albumin,3.9,g/dL,3.4,4.7,6,VISIT 5,54,NORMAL
ABC001,ABC001-103-01,67,BUN,Blood Urea Nitrogen (BUN),11.9,mg/dL,8,20,6,VISIT 5,54,NORMAL
ABC001,ABC001-103-01,67,CA,Calcium,9.84,mg/dL,8.5,10.5,6,VISIT 5,54,NORMAL
ABC001,ABC001-103-01,67,GLUC,Glucose,60.7,mg/dL,60,115,6,VISIT 5,54,NORMAL
ABC001,ABC001-103-02,68,ALB,Albumin,4.0,g/dL,3.4,4.7,1,SCREENING,-15,NORMAL
ABC001,ABC001-103-02,68,BUN,Blood Urea Nitrogen (BUN),15.9,mg/dL,8,20,1,SCREENING,-15,NORMAL
ABC001,ABC001-103-02,68,CA,Calcium,10.42,mg/dL,8.5,10.5,1,SCREENING,-15,NORMAL
ABC001,ABC001-103-02,68,GLUC,Glucose,85.3,mg/dL,60,115,1,SCREENING,-15,NORMAL
ABC001,ABC001-103-02,69,ALB,Albumin,4.0,g/dL,3.4,4.7,2,BASELINE,1,NORMAL
ABC001,ABC001-103-02,69,BUN,Blood Urea Nitrogen (BUN),16.2,mg/dL,8,20,2,BASELINE,1,NORMAL
ABC001,ABC001-103-02,69,CA,Calcium,9.88,mg/dL,8.5,10.5,2,BASELINE,1,NORMAL
ABC001,ABC001-103-02,69,GLUC,Glucose,85.9,mg/dL,60,115,2,BASELINE,1,NORMAL
ABC001,ABC001-103-02,70,ALB,Albumin,3.6,g/dL,3.4,4.7,3,VISIT 2,14,NORMAL
ABC001,ABC001-103-02,70,BUN,Blood Urea Nitrogen (BUN),11.1,mg/dL,8,20,3,VISIT 2,14,NORMAL
ABC001,ABC001-103-02,70,CA,Calcium,9.28,mg/dL,8.5,10.5,3,VISIT 2,14,NORMAL
ABC001,ABC001-103-02,70,GLUC,Glucose,67.3,mg/dL,60,115,3,VISIT 2,14,NORMAL
ABC001,ABC001-103-02,71,ALB,Albumin,4.0,g/dL,3.4,4.7,4,VISIT 3,29,NORMAL
ABC001,ABC001-103-02,71,BUN,Blood Urea Nitrogen (BUN),16.3,mg/dL,8,20,4,VISIT 3,29,NORMAL
ABC001,ABC001-103-02,71,CA,Calcium,8.8,mg/dL,8.5,10.5,4,VISIT 3,29,NORMAL
ABC001,ABC001-103-02,71,GLUC,Glucose,65.7,mg/dL,60,115,4,VISIT 3,29,NORMAL
ABC001,ABC001-103-02,72,ALB,Albumin,4.2,g/dL,3.4,4.7,5,VISIT 4,43,NORMAL
ABC001,ABC001-103-02,72,BUN,Blood Urea Nitrogen (BUN),12.5,mg/dL,8,20,5,VISIT 4,43,NORMAL
ABC001,ABC001-103-02,72,CA,Calcium,9.72,mg/dL,8.5,10.5,5,VISIT 4,43,NORMAL
ABC001,ABC001-103-02,72,GLUC,Glucose,70.9,mg/dL,60,115,5,VISIT 4,43,NORMAL
ABC001,ABC001-103-02,73,ALB,Albumin,4.5,g/dL,3.4,4.7,6,VISIT 5,57,NORMAL
ABC001,ABC001-103-02,73,BUN,Blood Urea Nitrogen (BUN),14.4,mg/dL,8,20,6,VISIT 5,57,NORMAL
ABC001,ABC001-103-02,73,CA,Calcium,10.31,mg/dL,8.5,10.5,6,VISIT 5,57,NORMAL
ABC001,ABC001-103-02,73,GLUC,Glucose,85.4,mg/dL,60,115,6,VISIT 5,57,NORMAL
ABC001,ABC001-103-02,74,ALB,Albumin,3.7,g/dL,3.4,4.7,7,VISIT 6,71,NORMAL
ABC001,ABC001-103-02,74,BUN,Blood Urea Nitrogen (BUN),16.2,mg/dL,8,20,7,VISIT 6,71,NORMAL
ABC001,ABC001-103-02,74,CA,Calcium,9.23,mg/dL,8.5,10.5,7,VISIT 6,71,NORMAL
ABC001,ABC001-103-02,74,GLUC,Glucose,86.1,mg/dL,60,115,7,VISIT 6,71,NORMAL
ABC001,ABC001-103-03,75,ALB,Albumin,4.3,g/dL,3.4,4.7,1,SCREENING,-13,NORMAL
ABC001,ABC001-103-03,75,BUN,Blood Urea Nitrogen (BUN),14.5,mg/dL,8,20,1,SCREENING,-13,NORMAL
ABC001,ABC001-103-03,75,CA,Calcium,9.72,mg/dL,8.5,10.5,1,SCREENING,-13,NORMAL
ABC001,ABC001-103-03,75,GLUC,Glucose,73.2,mg/dL,60,115,1,SCREENING,-13,NORMAL
ABC001,ABC001-103-03,76,ALB,Albumin,4.0,g/dL,3.4,4.7,2,BASELINE,1,NORMAL
ABC001,ABC001-103-03,76,BUN,Blood Urea Nitrogen (BUN),15.0,mg/dL,8,20,2,BASELINE,1,NORMAL
ABC001,ABC001-103-03,76,CA,Calcium,8.91,mg/dL,8.5,10.5,2,BASELINE,1,NORMAL
ABC001,ABC001-103-03,76,GLUC,Glucose,88.4,mg/dL,60,115,2,BASELINE,1,NORMAL
ABC001,ABC001-103-03,77,ALB,Albumin,4.1,g/dL,3.4,4.7,3,VISIT 2,15,NORMAL
ABC001,ABC001-103-03,77,BUN,Blood Urea Nitrogen (BUN),13.9,mg/dL,8,20,3,VISIT 2,15,NORMAL
ABC001,ABC001-103-03,77,CA,Calcium,9.29,mg/dL,8.5,10.5,3,VISIT 2,15,NORMAL
ABC001,ABC001-103-03,77,GLUC,Glucose,84.9,mg/dL,60,115,3,VISIT 2,15,NORMAL
ABC001,ABC001-201-01,78,ALB,Albumin,4.3,g/dL,3.4,4.7,1,SCREENING,-14,NORMAL
ABC001,ABC001-201-01,78,BUN,Blood Urea Nitrogen (BUN),16.8,mg/dL,8,20,1,SCREENING,-14,NORMAL
ABC001,ABC001-201-01,78,CA,Calcium,9.77,mg/dL,8.5,10.5,1,SCREENING,-14,NORMAL
ABC001,ABC001-201-01,78,GLUC,Glucose,93.9,mg/dL,60,115,1,SCREENING,-14,NORMAL
ABC001,ABC001-201-01,79,ALB,Albumin,4.1,g/dL,3.4,4.7,2,BASELINE,1,NORMAL
ABC001,ABC001-201-01,79,BUN,Blood Urea Nitrogen (BUN),13.4,mg/dL,8,20,2,BASELINE,1,NORMAL
ABC001,ABC001-201-01,79,CA,Calcium,9.5,mg/dL,8.5,10.5,2,BASELINE,1,NORMAL
ABC001,ABC001-201-01,79,GLUC,Glucose,73.1,mg/dL,60,115,2,BASELINE,1,NORMAL
ABC001,ABC001-201-01,80,ALB,Albumin,4.7,g/dL,3.4,4.7,3,VISIT 2,16,NORMAL
ABC001,ABC001-201-01,80,BUN,Blood Urea Nitrogen (BUN),14.8,mg/dL,8,20,3,VISIT 2,16,NORMAL
ABC001,ABC001-201-01,80,CA,Calcium,9.27,mg/dL,8.5,10.5,3,VISIT 2,16,NORMAL
ABC001,ABC001-201-01,80,GLUC,Glucose,87.9,mg/dL,60,115,3,VISIT 2,16,NORMAL
ABC001,ABC001-201-01,81,ALB,Albumin,3.5,g/dL,3.4,4.7,4,VISIT 3,28,NORMAL
ABC001,ABC001-201-01,81,BUN,Blood Urea Nitrogen (BUN),8.7,mg/dL,8,20,4,VISIT 3,28,NORMAL
ABC001,ABC001-201-01,81,CA,Calcium,9.91,mg/dL,8.5,10.5,4,VISIT 3,28,NORMAL
ABC001,ABC001-201-01,81,GLUC,Glucose,87.3,mg/dL,60,115,4,VISIT 3,28,NORMAL
ABC001,ABC001-201-01,82,ALB,Albumin,4.3,g/dL,3.4,4.7,5,VISIT 4,42,NORMAL
ABC001,ABC001-201-01,82,BUN,Blood Urea Nitrogen (BUN),15.2,mg/dL,8,20,5,VISIT 4,42,NORMAL
ABC001,ABC001-201-01,82,CA,Calcium,10.38,mg/dL,8.5,10.5,5,VISIT 4,42,NORMAL
ABC001,ABC001-201-01,82,GLUC,Glucose,96.4,mg/dL,60,115,5,VISIT 4,42,NORMAL
ABC001,ABC001-201-01,83,ALB,Albumin,4.3,g/dL,3.4,4.7,6,VISIT 5,56,NORMAL
ABC001,ABC001-201-01,83,BUN,Blood Urea Nitrogen (BUN),19.6,mg/dL,8,20,6,VISIT 5,56,NORMAL
ABC001,ABC001-201-01,83,CA,Calcium,10.01,mg/dL,8.5,10.5,6,VISIT 5,56,NORMAL
ABC001,ABC001-201-01,83,GLUC,Glucose,91.6,mg/dL,60,115,6,VISIT 5,56,NORMAL
ABC001,ABC001-201-01,84,ALB,Albumin,3.8,g/dL,3.4,4.7,7,VISIT 6,70,NORMAL
ABC001,ABC001-201-01,84,BUN,Blood Urea Nitrogen (BUN),16.0,mg/dL,8,20,7,VISIT 6,70,NORMAL
ABC001,ABC001-201-01,84,CA,Calcium,9.11,mg/dL,8.5,10.5,7,VISIT 6,70,NORMAL
ABC001,ABC001-201-01,84,GLUC,Glucose,78.1,mg/dL,60,115,7,VISIT 6,70,NORMAL
ABC001,ABC001-201-02,85,ALB,Albumin,3.8,g/dL,3.4,4.7,1,SCREENING,-11,NORMAL
ABC001,ABC001-201-02,85,BUN,Blood Urea Nitrogen (BUN),19.0,mg/dL,8,20,1,SCREENING,-11,NORMAL
ABC001,ABC001-201-02,85,CA,Calcium,8.45,mg/dL,8.5,10.5,1,SCREENING,-11,LOW
ABC001,ABC001-201-02,85,GLUC,Glucose,103.8,mg/dL,60,115,1,SCREENING,-11,NORMAL
ABC001,ABC001-201-02,86,ALB,Albumin,3.5,g/dL,3.4,4.7,2,BASELINE,1,NORMAL
ABC001,ABC001-201-02,86,BUN,Blood Urea Nitrogen (BUN),14.3,mg/dL,8,20,2,BASELINE,1,NORMAL
ABC001,ABC001-201-02,86,CA,Calcium,10.13,mg/dL,8.5,10.5,2,BASELINE,1,NORMAL
ABC001,ABC001-201-02,86,GLUC,Glucose,112.6,mg/dL,60,115,2,BASELINE,1,NORMAL
ABC001,ABC001-201-02,87,ALB,Albumin,4.0,g/dL,3.4,4.7,3,VISIT 2,15,NORMAL
ABC001,ABC001-201-02,87,BUN,Blood Urea Nitrogen (BUN),11.0,mg/dL,8,20,3,VISIT 2,15,NORMAL
ABC001,ABC001-201-02,87,CA,Calcium,9.73,mg/dL,8.5,10.5,3,VISIT 2,15,NORMAL
ABC001,ABC001-201-02,87,GLUC,Glucose,85.1,mg/dL,60,115,3,VISIT 2,15,NORMAL
ABC001,ABC001-201-02,88,ALB,Albumin,4.5,g/dL,3.4,4.7,4,VISIT 3,29,NORMAL
ABC001,ABC001-201-02,88,BUN,Blood Urea Nitrogen (BUN),12.6,mg/dL,8,20,4,VISIT 3,29,NORMAL
ABC001,ABC001-201-02,88,CA,Calcium,9.59,mg/dL,8.5,10.5,4,VISIT 3,29,NORMAL
ABC001,ABC001-201-02,88,GLUC,Glucose,94.6,mg/dL,60,115,4,VISIT 3,29,NORMAL
ABC001,ABC001-201-02,89,ALB,Albumin,3.8,g/dL,3.4,4.7,5,VISIT 4,43,NORMAL
ABC001,ABC001-201-02,89,BUN,Blood Urea Nitrogen (BUN),15.7,mg/dL,8,20,5,VISIT 4,43,NORMAL
ABC001,ABC001-201-02,89,CA,Calcium,9.2,mg/dL,8.5,10.5,5,VISIT 4,43,NORMAL
ABC001,ABC001-201-02,89,GLUC,Glucose,90.5,mg/dL,60,115,5,VISIT 4,43,NORMAL
ABC001,ABC001-201-02,90,ALB,Albumin,4.3,g/dL,3.4,4.7,6,VISIT 5,55,NORMAL
ABC001,ABC001-201-02,90,BUN,Blood Urea Nitrogen (BUN),14.4,mg/dL,8,20,6,VISIT 5,55,NORMAL
ABC001,ABC001-201-02,90,CA,Calcium,9.18,mg/dL,8.5,10.5,6,VISIT 5,55,NORMAL
ABC001,ABC001-201-02,90,GLUC,Glucose,101.3,mg/dL,60,115,6,VISIT 5,55,NORMAL
ABC001,ABC001-201-02,91,ALB,Albumin,4.5,g/dL,3.4,4.7,7,VISIT 6,70,NORMAL
ABC001,ABC001-201-02,91,BUN,Blood Urea Nitrogen (BUN),14.8,mg/dL,8,20,7,VISIT 6,70,NORMAL
ABC001,ABC001-201-02,91,CA,Calcium,10.45,mg/dL,8.5,10.5,7,VISIT 6,70,NORMAL
ABC001,ABC001-201-02,91,GLUC,Glucose,82.0,mg/dL,60,115,7,VISIT 6,70,NORMAL
ABC001,ABC001-201-03,92,ALB,Albumin,4.4,g/dL,3.4,4.7,1,SCREENING,-14,NORMAL
ABC001,ABC001-201-03,92,BUN,Blood Urea Nitrogen (BUN),14.1,mg/dL,8,20,1,SCREENING,-14,NORMAL
ABC001,ABC001-201-03,92,CA,Calcium,9.86,mg/dL,8.5,10.5,1,SCREENING,-14,NORMAL
ABC001,ABC001-201-03,92,GLUC,Glucose,93.4,mg/dL,60,115,1,SCREENING,-14,NORMAL
ABC001,ABC001-201-03,93,ALB,Albumin,3.9,g/dL,3.4,4.7,2,BASELINE,1,NORMAL
ABC001,ABC001-201-03,93,BUN,Blood Urea Nitrogen (BUN),14.1,mg/dL,8,20,2,BASELINE,1,NORMAL
ABC001,ABC001-201-03,93,CA,Calcium,9.16,mg/dL,8.5,10.5,2,BASELINE,1,NORMAL
ABC001,ABC001-201-03,93,GLUC,Glucose,84.6,mg/dL,60,115,2,BASELINE,1,NORMAL
ABC001,ABC001-201-03,94,ALB,Albumin,4.0,g/dL,3.4,4.7,3,VISIT 2,15,NORMAL
ABC001,ABC001-201-03,94,BUN,Blood Urea Nitrogen (BUN),14.7,mg/dL,8,20,3,VISIT 2,15,NORMAL
ABC001,ABC001-201-03,94,CA,Calcium,9.34,mg/dL,8.5,10.5,3,VISIT 2,15,NORMAL
ABC001,ABC001-201-03,94,GLUC,Glucose,77.5,mg/dL,60,115,3,VISIT 2,15,NORMAL
ABC001,ABC001-201-03,95,ALB,Albumin,3.8,g/dL,3.4,4.7,4,VISIT 3,29,NORMAL
ABC001,ABC001-201-03,95,BUN,Blood Urea Nitrogen (BUN),13.9,mg/dL,8,20,4,VISIT 3,29,NORMAL
ABC001,ABC001-201-03,95,CA,Calcium,9.87,mg/dL,8.5,10.5,4,VISIT 3,29,NORMAL
ABC001,ABC001-201-03,95,GLUC,Glucose,108.7,mg/dL,60,115,4,VISIT 3,29,NORMAL
ABC001,ABC001-201-03,96,ALB,Albumin,3.6,g/dL,3.4,4.7,5,VISIT 4,43,NORMAL
ABC001,ABC001-201-03,96,BUN,Blood Urea Nitrogen (BUN),12.4,mg/dL,8,20,5,VISIT 4,43,NORMAL
ABC001,ABC001-201-03,96,CA,Calcium,9.73,mg/dL,8.5,10.5,5,VISIT 4,43,NORMAL
ABC001,ABC001-201-03,96,GLUC,Glucose,96.8,mg/dL,60,115,5,VISIT 4,43,NORMAL
ABC001,ABC001-201-03,97,ALB,Albumin,4.0,g/dL,3.4,4.7,6,VISIT 5,56,NORMAL
ABC001,ABC001-201-03,97,BUN,Blood Urea Nitrogen (BUN),11.5,mg/dL,8,20,6,VISIT 5,56,NORMAL
ABC001,ABC001-201-03,97,CA,Calcium,9.01,mg/dL,8.5,10.5,6,VISIT 5,56,NORMAL
ABC001,ABC001-201-03,97,GLUC,Glucose,81.5,mg/dL,60,115,6,VISIT 5,56,NORMAL
ABC001,ABC001-201-03,98,ALB,Albumin,4.3,g/dL,3.4,4.7,7,VISIT 6,68,NORMAL
ABC001,ABC001-201-03,98,BUN,Blood Urea Nitrogen (BUN),9.3,mg/dL,8,20,7,VISIT 6,68,NORMAL
ABC001,ABC001-201-03,98,CA,Calcium,9.31,mg/dL,8.5,10.5,7,VISIT 6,68,NORMAL
ABC001,ABC001-201-03,98,GLUC,Glucose,109.8,mg/dL,60,115,7,VISIT 6,68,NORMAL
ABC001,ABC001-201-04,99,ALB,Albumin,3.9,g/dL,3.4,4.7,1,SCREENING,,NORMAL
ABC001,ABC001-201-04,99,BUN,Blood Urea Nitrogen (BUN),19.2,mg/dL,8,20,1,SCREENING,,NORMAL
ABC001,ABC001-201-04,99,CA,Calcium,8.82,mg/dL,8.5,10.5,1,SCREENING,,NORMAL
ABC001,ABC001-201-04,99,GLUC,Glucose,76.7,mg/dL,60,115,1,SCREENING,,NORMAL
ABC001,ABC001-201-05,100,ALB,Albumin,4.1,g/dL,3.4,4.7,1,SCREENING,,NORMAL
ABC001,ABC001-201-05,100,BUN,Blood Urea Nitrogen (BUN),14.7,mg/dL,8,20,1,SCREENING,,NORMAL
ABC001,ABC001-201-05,100,CA,Calcium,10.06,mg/dL,8.5,10.5,1,SCREENING,,NORMAL
ABC001,ABC001-201-05,100,GLUC,Glucose,101.8,mg/dL,60,115,1,SCREENING,,NORMAL
ABC001,ABC001-201-06,101,ALB,Albumin,4.3,g/dL,3.4,4.7,1,SCREENING,-15,NORMAL
ABC001,ABC001-201-06,101,BUN,Blood Urea Nitrogen (BUN),8.3,mg/dL,8,20,1,SCREENING,-15,NORMAL
ABC001,ABC001-201-06,101,CA,Calcium,9.41,mg/dL,8.5,10.5,1,SCREENING,-15,NORMAL
ABC001,ABC001-201-06,101,GLUC,Glucose,75.4,mg/dL,60,115,1,SCREENING,-15,NORMAL
ABC001,ABC001-201-06,102,ALB,Albumin,4.2,g/dL,3.4,4.7,2,BASELINE,1,NORMAL
ABC001,ABC001-201-06,102,BUN,Blood Urea Nitrogen (BUN),17.8,mg/dL,8,20,2,BASELINE,1,NORMAL
ABC001,ABC001-201-06,102,CA,Calcium,9.59,mg/dL,8.5,10.5,2,BASELINE,1,NORMAL
ABC001,ABC001-201-06,102,GLUC,Glucose,92.7,mg/dL,60,115,2,BASELINE,1,NORMAL
ABC001,ABC001-201-06,103,ALB,Albumin,3.9,g/dL,3.4,4.7,3,VISIT 2,15,NORMAL
ABC001,ABC001-201-06,103,BUN,Blood Urea Nitrogen (BUN),16.4,mg/dL,8,20,3,VISIT 2,15,NORMAL
ABC001,ABC001-201-06,103,CA,Calcium,9.43,mg/dL,8.5,10.5,3,VISIT 2,15,NORMAL
ABC001,ABC001-201-06,103,GLUC,Glucose,83.9,mg/dL,60,115,3,VISIT 2,15,NORMAL
ABC001,ABC001-201-06,104,ALB,Albumin,4.0,g/dL,3.4,4.7,4,VISIT 3,29,NORMAL
ABC001,ABC001-201-06,104,BUN,Blood Urea Nitrogen (BUN),16.4,mg/dL,8,20,4,VISIT 3,29,NORMAL
ABC001,ABC001-201-06,104,CA,Calcium,9.29,mg/dL,8.5,10.5,4,VISIT 3,29,NORMAL
ABC001,ABC001-201-06,104,GLUC,Glucose,87.5,mg/dL,60,115,4,VISIT 3,29,NORMAL
ABC001,ABC001-201-06,105,ALB,Albumin,4.3,g/dL,3.4,4.7,5,VISIT 4,42,NORMAL
ABC001,ABC001-201-06,105,BUN,Blood Urea Nitrogen (BUN),12.6,mg/dL,8,20,5,VISIT 4,42,NORMAL
ABC001,ABC001-201-06,105,CA,Calcium,10.18,mg/dL,8.5,10.5,5,VISIT 4,42,NORMAL
ABC001,ABC001-201-06,105,GLUC,Glucose,78.9,mg/dL,60,115,5,VISIT 4,42,NORMAL
ABC001,ABC001-201-07,106,ALB,Albumin,3.8,g/dL,3.4,4.7,1,SCREENING,-13,NORMAL
ABC001,ABC001-201-07,106,BUN,Blood Urea Nitrogen (BUN),13.7,mg/dL,8,20,1,SCREENING,-13,NORMAL
ABC001,ABC001-201-07,106,CA,Calcium,9.9,mg/dL,8.5,10.5,1,SCREENING,-13,NORMAL
ABC001,ABC001-201-07,106,GLUC,Glucose,85.6,mg/dL,60,115,1,SCREENING,-13,NORMAL
ABC001,ABC001-201-07,107,ALB,Albumin,3.6,g/dL,3.4,4.7,2,BASELINE,1,NORMAL
ABC001,ABC001-201-07,107,BUN,Blood Urea Nitrogen (BUN),13.9,mg/dL,8,20,2,BASELINE,1,NORMAL
ABC001,ABC001-201-07,107,CA,Calcium,9.37,mg/dL,8.5,10.5,2,BASELINE,1,NORMAL
ABC001,ABC001-201-07,107,GLUC,Glucose,60.7,mg/dL,60,115,2,BASELINE,1,NORMAL
ABC001,ABC001-201-07,108,ALB,Albumin,3.8,g/dL,3.4,4.7,3,VISIT 2,14,NORMAL
ABC001,ABC001-201-07,108,BUN,Blood Urea Nitrogen (BUN),5.4,mg/dL,8,20,3,VISIT 2,14,LOW
ABC001,ABC001-201-07,108,CA,Calcium,9.12,mg/dL,8.5,10.5,3,VISIT 2,14,NORMAL
ABC001,ABC001-201-07,108,GLUC,Glucose,97.5,mg/dL,60,115,3,VISIT 2,14,NORMAL
ABC001,ABC001-201-07,109,ALB,Albumin,3.8,g/dL,3.4,4.7,4,VISIT 3,27,NORMAL
ABC001,ABC001-201-07,109,BUN,Blood Urea Nitrogen (BUN),14.8,mg/dL,8,20,4,VISIT 3,27,NORMAL
ABC001,ABC001-201-07,109,CA,Calcium,9.36,mg/dL,8.5,10.5,4,VISIT 3,27,NORMAL
ABC001,ABC001-201-07,109,GLUC,Glucose,82.1,mg/dL,60,115,4,VISIT 3,27,NORMAL
ABC001,ABC001-201-07,110,ALB,Albumin,4.2,g/dL,3.4,4.7,5,VISIT 4,41,NORMAL
ABC001,ABC001-201-07,110,BUN,Blood Urea Nitrogen (BUN),8.5,mg/dL,8,20,5,VISIT 4,41,NORMAL
ABC001,ABC001-201-07,110,CA,Calcium,8.53,mg/dL,8.5,10.5,5,VISIT 4,41,NORMAL
ABC001,ABC001-201-07,110,GLUC,Glucose,102.8,mg/dL,60,115,5,VISIT 4,41,NORMAL
ABC001,ABC001-201-08,111,ALB,Albumin,4.0,g/dL,3.4,4.7,1,SCREENING,-14,NORMAL
ABC001,ABC001-201-08,111,BUN,Blood Urea Nitrogen (BUN),20.3,mg/dL,8,20,1,SCREENING,-14,HIGH
ABC001,ABC001-201-08,111,CA,Calcium,9.1,mg/dL,8.5,10.5,1,SCREENING,-14,NORMAL
ABC001,ABC001-201-08,111,GLUC,Glucose,81.7,mg/dL,60,115,1,SCREENING,-14,NORMAL
ABC001,ABC001-201-08,112,ALB,Albumin,4.1,g/dL,3.4,4.7,2,BASELINE,1,NORMAL
ABC001,ABC001-201-08,112,BUN,Blood Urea Nitrogen (BUN),12.0,mg/dL,8,20,2,BASELINE,1,NORMAL
ABC001,ABC001-201-08,112,CA,Calcium,9.71,mg/dL,8.5,10.5,2,BASELINE,1,NORMAL
ABC001,ABC001-201-08,112,GLUC,Glucose,77.3,mg/dL,60,115,2,BASELINE,1,NORMAL
ABC001,ABC001-201-08,113,ALB,Albumin,3.8,g/dL,3.4,4.7,3,VISIT 2,16,NORMAL
ABC001,ABC001-201-08,113,BUN,Blood Urea Nitrogen (BUN),15.1,mg/dL,8,20,3,VISIT 2,16,NORMAL
ABC001,ABC001-201-08,113,CA,Calcium,9.04,mg/dL,8.5,10.5,3,VISIT 2,16,NORMAL
ABC001,ABC001-201-08,113,GLUC,Glucose,97.4,mg/dL,60,115,3,VISIT 2,16,NORMAL
ABC001,ABC001-201-09,114,ALB,Albumin,4.0,g/dL,3.4,4.7,1,SCREENING,,NORMAL
ABC001,ABC001-201-09,114,BUN,Blood Urea Nitrogen (BUN),14.5,mg/dL,8,20,1,SCREENING,,NORMAL
ABC001,ABC001-201-09,114,CA,Calcium,10.08,mg/dL,8.5,10.5,1,SCREENING,,NORMAL
ABC001,ABC001-201-09,114,GLUC,Glucose,111.0,mg/dL,60,115,1,SCREENING,,NORMAL
ABC001,ABC001-201-10,115,ALB,Albumin,4.1,g/dL,3.4,4.7,1,SCREENING,-14,NORMAL
ABC001,ABC001-201-10,115,BUN,Blood Urea Nitrogen (BUN),12.7,mg/dL,8,20,1,SCREENING,-14,NORMAL
ABC001,ABC001-201-10,115,CA,Calcium,9.22,mg/dL,8.5,10.5,1,SCREENING,-14,NORMAL
ABC001,ABC001-201-10,115,GLUC,Glucose,109.2,mg/dL,60,115,1,SCREENING,-14,NORMAL
ABC001,ABC001-201-10,116,ALB,Albumin,3.9,g/dL,3.4,4.7,2,BASELINE,1,NORMAL
ABC001,ABC001-201-10,116,BUN,Blood Urea Nitrogen (BUN),14.6,mg/dL,8,20,2,BASELINE,1,NORMAL
ABC001,ABC001-201-10,116,CA,Calcium,9.44,mg/dL,8.5,10.5,2,BASELINE,1,NORMAL
ABC001,ABC001-201-10,116,GLUC,Glucose,95.1,mg/dL,60,115,2,BASELINE,1,NORMAL
ABC001,ABC001-201-10,117,ALB,Albumin,4.3,g/dL,3.4,4.7,3,VISIT 2,14,NORMAL
ABC001,ABC001-201-10,117,BUN,Blood Urea Nitrogen (BUN),13.6,mg/dL,8,20,3,VISIT 2,14,NORMAL
ABC001,ABC001-201-10,117,CA,Calcium,9.64,mg/dL,8.5,10.5,3,VISIT 2,14,NORMAL
ABC001,ABC001-201-10,117,GLUC,Glucose,85.4,mg/dL,60,115,3,VISIT 2,14,NORMAL
ABC001,ABC001-201-11,118,ALB,Albumin,4.4,g/dL,3.4,4.7,1,SCREENING,-14,NORMAL
ABC001,ABC001-201-11,118,BUN,Blood Urea Nitrogen (BUN),16.1,mg/dL,8,20,1,SCREENING,-14,NORMAL
ABC001,ABC001-201-11,118,CA,Calcium,9.0,mg/dL,8.5,10.5,1,SCREENING,-14,NORMAL
ABC001,ABC001-201-11,118,GLUC,Glucose,62.1,mg/dL,60,115,1,SCREENING,-14,NORMAL
ABC001,ABC001-201-11,119,ALB,Albumin,4.2,g/dL,3.4,4.7,2,BASELINE,1,NORMAL
ABC001,ABC001-201-11,119,BUN,Blood Urea Nitrogen (BUN),13.2,mg/dL,8,20,2,BASELINE,1,NORMAL
ABC001,ABC001-201-11,119,CA,Calcium,9.51,mg/dL,8.5,10.5,2,BASELINE,1,NORMAL
ABC001,ABC001-201-11,119,GLUC,Glucose,88.8,mg/dL,60,115,2,BASELINE,1,NORMAL
ABC001,ABC001-201-11,120,ALB,Albumin,4.1,g/dL,3.4,4.7,3,VISIT 2,13,NORMAL
ABC001,ABC001-201-11,120,BUN,Blood Urea Nitrogen (BUN),11.3,mg/dL,8,20,3,VISIT 2,13,NORMAL
ABC001,ABC001-201-11,120,CA,Calcium,9.18,mg/dL,8.5,10.5,3,VISIT 2,13,NORMAL
ABC001,ABC001-201-11,120,GLUC,Glucose,67.8,mg/dL,60,115,3,VISIT 2,13,NORMAL
ABC001,ABC001-201-11,121,ALB,Albumin,4.1,g/dL,3.4,4.7,4,VISIT 3,27,NORMAL
ABC001,ABC001-201-11,121,BUN,Blood Urea Nitrogen (BUN),19.0,mg/dL,8,20,4,VISIT 3,27,NORMAL
ABC001,ABC001-201-11,121,CA,Calcium,9.47,mg/dL,8.5,10.5,4,VISIT 3,27,NORMAL
ABC001,ABC001-201-11,121,GLUC,Glucose,101.3,mg/dL,60,115,4,VISIT 3,27,NORMAL
ABC001,ABC001-201-11,122,ALB,Albumin,4.3,g/dL,3.4,4.7,5,VISIT 4,41,NORMAL
ABC001,ABC001-201-11,122,BUN,Blood Urea Nitrogen (BUN),13.3,mg/dL,8,20,5,VISIT 4,41,NORMAL
ABC001,ABC001-201-11,122,CA,Calcium,9.11,mg/dL,8.5,10.5,5,VISIT 4,41,NORMAL
ABC001,ABC001-201-11,122,GLUC,Glucose,71.7,mg/dL,60,115,5,VISIT 4,41,NORMAL
ABC001,ABC001-201-12,123,ALB,Albumin,4.3,g/dL,3.4,4.7,1,SCREENING,-13,NORMAL
ABC001,ABC001-201-12,123,BUN,Blood Urea Nitrogen (BUN),19.8,mg/dL,8,20,1,SCREENING,-13,NORMAL
ABC001,ABC001-201-12,123,CA,Calcium,9.35,mg/dL,8.5,10.5,1,SCREENING,-13,NORMAL
ABC001,ABC001-201-12,123,GLUC,Glucose,73.1,mg/dL,60,115,1,SCREENING,-13,NORMAL
ABC001,ABC001-201-12,124,ALB,Albumin,4.2,g/dL,3.4,4.7,2,BASELINE,1,NORMAL
ABC001,ABC001-201-12,124,BUN,Blood Urea Nitrogen (BUN),11.4,mg/dL,8,20,2,BASELINE,1,NORMAL
ABC001,ABC001-201-12,124,CA,Calcium,10.71,mg/dL,8.5,10.5,2,BASELINE,1,HIGH
ABC001,ABC001-201-12,124,GLUC,Glucose,89.3,mg/dL,60,115,2,BASELINE,1,NORMAL
ABC001,ABC001-201-12,125,ALB,Albumin,4.3,g/dL,3.4,4.7,3,VISIT 2,15,NORMAL
ABC001,ABC001-201-12,125,BUN,Blood Urea Nitrogen (BUN),15.2,mg/dL,8,20,3,VISIT 2,15,NORMAL
ABC001,ABC001-201-12,125,CA,Calcium,9.99,mg/dL,8.5,10.5,3,VISIT 2,15,NORMAL
ABC001,ABC001-201-12,125,GLUC,Glucose,91.4,mg/dL,60,115,3,VISIT 2,15,NORMAL
ABC001,ABC001-201-12,126,ALB,Albumin,4.2,g/dL,3.4,4.7,4,VISIT 3,27,NORMAL
ABC001,ABC001-201-12,126,BUN,Blood Urea Nitrogen (BUN),11.3,mg/dL,8,20,4,VISIT 3,27,NORMAL
ABC001,ABC001-201-12,126,CA,Calcium,9.28,mg/dL,8.5,10.5,4,VISIT 3,27,NORMAL
ABC001,ABC001-201-12,126,GLUC,Glucose,73.8,mg/dL,60,115,4,VISIT 3,27,NORMAL
ABC001,ABC001-201-12,127,ALB,Albumin,4.0,g/dL,3.4,4.7,5,VISIT 4,41,NORMAL
ABC001,ABC001-201-12,127,BUN,Blood Urea Nitrogen (BUN),18.1,mg/dL,8,20,5,VISIT 4,41,NORMAL
ABC001,ABC001-201-12,127,CA,Calcium,10.2,mg/dL,8.5,10.5,5,VISIT 4,41,NORMAL
ABC001,ABC001-201-12,127,GLUC,Glucose,90.9,mg/dL,60,115,5,VISIT 4,41,NORMAL
ABC001,ABC001-201-13,128,ALB,Albumin,3.8,g/dL,3.4,4.7,1,SCREENING,-12,NORMAL
ABC001,ABC001-201-13,128,BUN,Blood Urea Nitrogen (BUN),10.2,mg/dL,8,20,1,SCREENING,-12,NORMAL
ABC001,ABC001-201-13,128,CA,Calcium,9.24,mg/dL,8.5,10.5,1,SCREENING,-12,NORMAL
ABC001,ABC001-201-13,128,GLUC,Glucose,89.7,mg/dL,60,115,1,SCREENING,-12,NORMAL
ABC001,ABC001-201-13,129,ALB,Albumin,4.5,g/dL,3.4,4.7,2,BASELINE,1,NORMAL
ABC001,ABC001-201-13,129,BUN,Blood Urea Nitrogen (BUN),13.6,mg/dL,8,20,2,BASELINE,1,NORMAL
ABC001,ABC001-201-13,129,CA,Calcium,9.82,mg/dL,8.5,10.5,2,BASELINE,1,NORMAL
ABC001,ABC001-201-13,129,GLUC,Glucose,92.6,mg/dL,60,115,2,BASELINE,1,NORMAL
ABC001,ABC001-201-13,130,ALB,Albumin,3.7,g/dL,3.4,4.7,3,VISIT 2,14,NORMAL
ABC001,ABC001-201-13,130,BUN,Blood Urea Nitrogen (BUN),13.3,mg/dL,8,20,3,VISIT 2,14,NORMAL
ABC001,ABC001-201-13,130,CA,Calcium,8.63,mg/dL,8.5,10.5,3,VISIT 2,14,NORMAL
ABC001,ABC001-201-13,130,GLUC,Glucose,80.0,mg/dL,60,115,3,VISIT 2,14,NORMAL
ABC001,ABC001-201-13,131,ALB,Albumin,3.7,g/dL,3.4,4.7,4,VISIT 3,28,NORMAL
ABC001,ABC001-201-13,131,BUN,Blood Urea Nitrogen (BUN),11.6,mg/dL,8,20,4,VISIT 3,28,NORMAL
ABC001,ABC001-201-13,131,CA,Calcium,9.39,mg/dL,8.5,10.5,4,VISIT 3,28,NORMAL
ABC001,ABC001-201-13,131,GLUC,Glucose,84.9,mg/dL,60,115,4,VISIT 3,28,NORMAL
ABC001,ABC001-201-13,132,ALB,Albumin,4.3,g/dL,3.4,4.7,5,VISIT 4,42,NORMAL
ABC001,ABC001-201-13,132,BUN,Blood Urea Nitrogen (BUN),12.6,mg/dL,8,20,5,VISIT 4,42,NORMAL
ABC001,ABC001-201-13,132,CA,Calcium,9.73,mg/dL,8.5,10.5,5,VISIT 4,42,NORMAL
ABC001,ABC001-201-13,132,GLUC,Glucose,70.0,mg/dL,60,115,5,VISIT 4,42,NORMAL
ABC001,ABC001-201-13,133,ALB,Albumin,4.1,g/dL,3.4,4.7,6,VISIT 5,57,NORMAL
ABC001,ABC001-201-13,133,BUN,Blood Urea Nitrogen (BUN),11.1,mg/dL,8,20,6,VISIT 5,57,NORMAL
ABC001,ABC001-201-13,133,CA,Calcium,9.33,mg/dL,8.5,10.5,6,VISIT 5,57,NORMAL
ABC001,ABC001-201-13,133,GLUC,Glucose,81.3,mg/dL,60,115,6,VISIT 5,57,NORMAL
ABC001,ABC001-201-13,134,ALB,Albumin,4.0,g/dL,3.4,4.7,7,VISIT 6,70,NORMAL
ABC001,ABC001-201-13,134,BUN,Blood Urea Nitrogen (BUN),14.5,mg/dL,8,20,7,VISIT 6,70,NORMAL
ABC001,ABC001-201-13,134,CA,Calcium,9.66,mg/dL,8.5,10.5,7,VISIT 6,70,NORMAL
ABC001,ABC001-201-13,134,GLUC,Glucose,89.9,mg/dL,60,115,7,VISIT 6,70,NORMAL
ABC001,ABC001-201-14,135,ALB,Albumin,4.1,g/dL,3.4,4.7,1,SCREENING,-15,NORMAL
ABC001,ABC001-201-14,135,BUN,Blood Urea Nitrogen (BUN),16.0,mg/dL,8,20,1,SCREENING,-15,NORMAL
ABC001,ABC001-201-14,135,CA,Calcium,9.42,mg/dL,8.5,10.5,1,SCREENING,-15,NORMAL
ABC001,ABC001-201-14,135,GLUC,Glucose,93.2,mg/dL,60,115,1,SCREENING,-15,NORMAL
ABC001,ABC001-201-14,136,ALB,Albumin,3.6,g/dL,3.4,4.7,2,BASELINE,1,NORMAL
ABC001,ABC001-201-14,136,BUN,Blood Urea Nitrogen (BUN),14.5,mg/dL,8,20,2,BASELINE,1,NORMAL
ABC001,ABC001-201-14,136,CA,Calcium,9.63,mg/dL,8.5,10.5,2,BASELINE,1,NORMAL
ABC001,ABC001-201-14,136,GLUC,Glucose,67.2,mg/dL,60,115,2,BASELINE,1,NORMAL
ABC001,ABC001-201-14,137,ALB,Albumin,4.8,g/dL,3.4,4.7,3,VISIT 2,16,HIGH
ABC001,ABC001-201-14,137,BUN,Blood Urea Nitrogen (BUN),15.5,mg/dL,8,20,3,VISIT 2,16,NORMAL
ABC001,ABC001-201-14,137,CA,Calcium,10.28,mg/dL,8.5,10.5,3,VISIT 2,16,NORMAL
ABC001,ABC001-201-14,137,GLUC,Glucose,79.6,mg/dL,60,115,3,VISIT 2,16,NORMAL
ABC001,ABC001-201-14,138,ALB,Albumin,4.3,g/dL,3.4,4.7,4,VISIT 3,30,NORMAL
ABC001,ABC001-201-14,138,BUN,Blood Urea Nitrogen (BUN),13.4,mg/dL,8,20,4,VISIT 3,30,NORMAL
ABC001,ABC001-201-14,138,CA,Calcium,10.32,mg/dL,8.5,10.5,4,VISIT 3,30,NORMAL
ABC001,ABC001-201-14,138,GLUC,Glucose,116.3,mg/dL,60,115,4,VISIT 3,30,HIGH
ABC001,ABC001-201-15,139,ALB,Albumin,4.3,g/dL,3.4,4.7,1,SCREENING,-11,NORMAL
ABC001,ABC001-201-15,139,BUN,Blood Urea Nitrogen (BUN),10.1,mg/dL,8,20,1,SCREENING,-11,NORMAL
ABC001,ABC001-201-15,139,CA,Calcium,9.13,mg/dL,8.5,10.5,1,SCREENING,-11,NORMAL
ABC001,ABC001-201-15,139,GLUC,Glucose,97.9,mg/dL,60,115,1,SCREENING,-11,NORMAL
ABC001,ABC001-201-15,140,ALB,Albumin,4.1,g/dL,3.4,4.7,2,BASELINE,1,NORMAL
ABC001,ABC001-201-15,140,BUN,Blood Urea Nitrogen (BUN),20.4,mg/dL,8,20,2,BASELINE,1,HIGH
ABC001,ABC001-201-15,140,CA,Calcium,9.49,mg/dL,8.5,10.5,2,BASELINE,1,NORMAL
ABC001,ABC001-201-15,140,GLUC,Glucose,74.3,mg/dL,60,115,2,BASELINE,1,NORMAL
ABC001,ABC001-201-15,141,ALB,Albumin,3.9,g/dL,3.4,4.7,3,VISIT 2,15,NORMAL
ABC001,ABC001-201-15,141,BUN,Blood Urea Nitrogen (BUN),21.2,mg/dL,8,20,3,VISIT 2,15,HIGH
ABC001,ABC001-201-15,141,CA,Calcium,9.89,mg/dL,8.5,10.5,3,VISIT 2,15,NORMAL
ABC001,ABC001-201-15,141,GLUC,Glucose,89.8,mg/dL,60,115,3,VISIT 2,15,NORMAL
ABC001,ABC001-201-15,142,ALB,Albumin,3.9,g/dL,3.4,4.7,4,VISIT 3,29,NORMAL
ABC001,ABC001-201-15,142,BUN,Blood Urea Nitrogen (BUN),15.5,mg/dL,8,20,4,VISIT 3,29,NORMAL
ABC001,ABC001-201-15,142,CA,Calcium,9.71,mg/dL,8.5,10.5,4,VISIT 3,29,NORMAL
ABC001,ABC001-201-15,142,GLUC,Glucose,85.9,mg/dL,60,115,4,VISIT 3,29,NORMAL
ABC001,ABC001-201-16,143,ALB,Albumin,3.7,g/dL,3.4,4.7,1,SCREENING,-14,NORMAL
ABC001,ABC001-201-16,143,BUN,Blood Urea Nitrogen (BUN),17.8,mg/dL,8,20,1,SCREENING,-14,NORMAL
ABC001,ABC001-201-16,143,CA,Calcium,8.99,mg/dL,8.5,10.5,1,SCREENING,-14,NORMAL
ABC001,ABC001-201-16,143,GLUC,Glucose,96.8,mg/dL,60,115,1,SCREENING,-14,NORMAL
ABC001,ABC001-201-16,144,ALB,Albumin,4.1,g/dL,3.4,4.7,2,BASELINE,1,NORMAL
ABC001,ABC001-201-16,144,BUN,Blood Urea Nitrogen (BUN),13.3,mg/dL,8,20,2,BASELINE,1,NORMAL
ABC001,ABC001-201-16,144,CA,Calcium,10.33,mg/dL,8.5,10.5,2,BASELINE,1,NORMAL
ABC001,ABC001-201-16,144,GLUC,Glucose,87.1,mg/dL,60,115,2,BASELINE,1,NORMAL
ABC001,ABC001-201-16,145,ALB,Albumin,3.7,g/dL,3.4,4.7,3,VISIT 2,15,NORMAL
ABC001,ABC001-201-16,145,BUN,Blood Urea Nitrogen (BUN),10.7,mg/dL,8,20,3,VISIT 2,15,NORMAL
ABC001,ABC001-201-16,145,CA,Calcium,9.82,mg/dL,8.5,10.5,3,VISIT 2,15,NORMAL
ABC001,ABC001-201-16,145,GLUC,Glucose,59.9,mg/dL,60,115,3,VISIT 2,15,LOW
ABC001,ABC001-201-16,146,ALB,Albumin,3.9,g/dL,3.4,4.7,4,VISIT 3,27,NORMAL
ABC001,ABC001-201-16,146,BUN,Blood Urea Nitrogen (BUN),13.4,mg/dL,8,20,4,VISIT 3,27,NORMAL
ABC001,ABC001-201-16,146,CA,Calcium,8.83,mg/dL,8.5,10.5,4,VISIT 3,27,NORMAL
ABC001,ABC001-201-16,146,GLUC,Glucose,101.6,mg/dL,60,115,4,VISIT 3,27,NORMAL
ABC001,ABC001-201-16,147,ALB,Albumin,4.1,g/dL,3.4,4.7,5,VISIT 4,41,NORMAL
ABC001,ABC001-201-16,147,BUN,Blood Urea Nitrogen (BUN),14.9,mg/dL,8,20,5,VISIT 4,41,NORMAL
ABC001,ABC001-201-16,147,CA,Calcium,9.51,mg/dL,8.5,10.5,5,VISIT 4,41,NORMAL
ABC001,ABC001-201-16,147,GLUC,Glucose,119.8,mg/dL,60,115,5,VISIT 4,41,HIGH
ABC001,ABC001-201-16,148,ALB,Albumin,3.8,g/dL,3.4,4.7,6,VISIT 5,53,NORMAL
ABC001,ABC001-201-16,148,BUN,Blood Urea Nitrogen (BUN),16.8,mg/dL,8,20,6,VISIT 5,53,NORMAL
ABC001,ABC001-201-16,148,CA,Calcium,8.78,mg/dL,8.5,10.5,6,VISIT 5,53,NORMAL
ABC001,ABC001-201-16,148,GLUC,Glucose,74.8,mg/dL,60,115,6,VISIT 5,53,NORMAL
ABC001,ABC001-201-16,149,ALB,Albumin,4.0,g/dL,3.4,4.7,7,VISIT 6,67,NORMAL
ABC001,ABC001-201-16,149,BUN,Blood Urea Nitrogen (BUN),12.2,mg/dL,8,20,7,VISIT 6,67,NORMAL
ABC001,ABC001-201-16,149,CA,Calcium,10.01,mg/dL,8.5,10.5,7,VISIT 6,67,NORMAL
ABC001,ABC001-201-16,149,GLUC,Glucose,95.1,mg/dL,60,115,7,VISIT 6,67,NORMAL
ABC001,ABC001-201-17,150,ALB,Albumin,4.3,g/dL,3.4,4.7,1,SCREENING,-15,NORMAL
ABC001,ABC001-201-17,150,BUN,Blood Urea Nitrogen (BUN),15.2,mg/dL,8,20,1,SCREENING,-15,NORMAL
ABC001,ABC001-201-17,150,CA,Calcium,9.32,mg/dL,8.5,10.5,1,SCREENING,-15,NORMAL
ABC001,ABC001-201-17,150,GLUC,Glucose,91.1,mg/dL,60,115,1,SCREENING,-15,NORMAL
ABC001,ABC001-201-17,151,ALB,Albumin,4.2,g/dL,3.4,4.7,2,BASELINE,1,NORMAL
ABC001,ABC001-201-17,151,BUN,Blood Urea Nitrogen (BUN),8.1,mg/dL,8,20,2,BASELINE,1,NORMAL
ABC001,ABC001-201-17,151,CA,Calcium,9.45,mg/dL,8.5,10.5,2,BASELINE,1,NORMAL
ABC001,ABC001-201-17,151,GLUC,Glucose,69.8,mg/dL,60,115,2,BASELINE,1,NORMAL
ABC001,ABC001-201-17,152,ALB,Albumin,3.3,g/dL,3.4,4.7,3,VISIT 2,16,LOW
ABC001,ABC001-201-17,152,BUN,Blood Urea Nitrogen (BUN),9.0,mg/dL,8,20,3,VISIT 2,16,NORMAL
ABC001,ABC001-201-17,152,CA,Calcium,8.45,mg/dL,8.5,10.5,3,VISIT 2,16,LOW
ABC001,ABC001-201-17,152,GLUC,Glucose,72.4,mg/dL,60,115,3,VISIT 2,16,NORMAL
ABC001,ABC001-201-17,153,ALB,Albumin,4.1,g/dL,3.4,4.7,4,VISIT 3,30,NORMAL
ABC001,ABC001-201-17,153,BUN,Blood Urea Nitrogen (BUN),12.7,mg/dL,8,20,4,VISIT 3,30,NORMAL
ABC001,ABC001-201-17,153,CA,Calcium,9.24,mg/dL,8.5,10.5,4,VISIT 3,30,NORMAL
ABC001,ABC001-201-17,153,GLUC,Glucose,75.4,mg/dL,60,115,4,VISIT 3,30,NORMAL
ABC001,ABC001-201-17,154,ALB,Albumin,3.6,g/dL,3.4,4.7,5,VISIT 4,44,NORMAL
ABC001,ABC001-201-17,154,BUN,Blood Urea Nitrogen (BUN),11.0,mg/dL,8,20,5,VISIT 4,44,NORMAL
ABC001,ABC001-201-17,154,CA,Calcium,9.72,mg/dL,8.5,10.5,5,VISIT 4,44,NORMAL
ABC001,ABC001-201-17,154,GLUC,Glucose,81.5,mg/dL,60,115,5,VISIT 4,44,NORMAL
ABC001,ABC001-201-17,155,ALB,Albumin,4.4,g/dL,3.4,4.7,6,VISIT 5,58,NORMAL
ABC001,ABC001-201-17,155,BUN,Blood Urea Nitrogen (BUN),13.0,mg/dL,8,20,6,VISIT 5,58,NORMAL
ABC001,ABC001-201-17,155,CA,Calcium,9.51,mg/dL,8.5,10.5,6,VISIT 5,58,NORMAL
ABC001,ABC001-201-17,155,GLUC,Glucose,86.0,mg/dL,60,115,6,VISIT 5,58,NORMAL
ABC001,ABC001-201-17,156,ALB,Albumin,3.8,g/dL,3.4,4.7,7,VISIT 6,73,NORMAL
ABC001,ABC001-201-17,156,BUN,Blood Urea Nitrogen (BUN),15.8,mg/dL,8,20,7,VISIT 6,73,NORMAL
ABC001,ABC001-201-17,156,CA,Calcium,9.4,mg/dL,8.5,10.5,7,VISIT 6,73,NORMAL
ABC001,ABC001-201-17,156,GLUC,Glucose,92.3,mg/dL,60,115,7,VISIT 6,73,NORMAL
ABC001,ABC001-201-18,157,ALB,Albumin,4.2,g/dL,3.4,4.7,1,SCREENING,-12,NORMAL
ABC001,ABC001-201-18,157,BUN,Blood Urea Nitrogen (BUN),12.9,mg/dL,8,20,1,SCREENING,-12,NORMAL
ABC001,ABC001-201-18,157,CA,Calcium,9.86,mg/dL,8.5,10.5,1,SCREENING,-12,NORMAL
ABC001,ABC001-201-18,157,GLUC,Glucose,93.8,mg/dL,60,115,1,SCREENING,-12,NORMAL
ABC001,ABC001-201-18,158,ALB,Albumin,4.2,g/dL,3.4,4.7,2,BASELINE,1,NORMAL
ABC001,ABC001-201-18,158,BUN,Blood Urea Nitrogen (BUN),13.6,mg/dL,8,20,2,BASELINE,1,NORMAL
ABC001,ABC001-201-18,158,CA,Calcium,9.2,mg/dL,8.5,10.5,2,BASELINE,1,NORMAL
ABC001,ABC001-201-18,158,GLUC,Glucose,91.2,mg/dL,60,115,2,BASELINE,1,NORMAL
ABC001,ABC001-201-18,159,ALB,Albumin,3.9,g/dL,3.4,4.7,3,VISIT 2,14,NORMAL
ABC001,ABC001-201-18,159,BUN,Blood Urea Nitrogen (BUN),18.6,mg/dL,8,20,3,VISIT 2,14,NORMAL
ABC001,ABC001-201-18,159,CA,Calcium,10.5,mg/dL,8.5,10.5,3,VISIT 2,14,NORMAL
ABC001,ABC001-201-18,159,GLUC,Glucose,87.4,mg/dL,60,115,3,VISIT 2,14,NORMAL
ABC001,ABC001-201-18,160,ALB,Albumin,4.4,g/dL,3.4,4.7,4,VISIT 3,27,NORMAL
ABC001,ABC001-201-18,160,BUN,Blood Urea Nitrogen (BUN),14.7,mg/dL,8,20,4,VISIT 3,27,NORMAL
ABC001,ABC001-201-18,160,CA,Calcium,9.26,mg/dL,8.5,10.5,4,VISIT 3,27,NORMAL
ABC001,ABC001-201-18,160,GLUC,Glucose,104.7,mg/dL,60,115,4,VISIT 3,27,NORMAL
ABC001,ABC001-201-18,161,ALB,Albumin,3.7,g/dL,3.4,4.7,5,VISIT 4,41,NORMAL
ABC001,ABC001-201-18,161,BUN,Blood Urea Nitrogen (BUN),10.2,mg/dL,8,20,5,VISIT 4,41,NORMAL
ABC001,ABC001-201-18,161,CA,Calcium,9.38,mg/dL,8.5,10.5,5,VISIT 4,41,NORMAL
ABC001,ABC001-201-18,161,GLUC,Glucose,64.3,mg/dL,60,115,5,VISIT 4,41,NORMAL
ABC001,ABC001-201-18,162,ALB,Albumin,4.1,g/dL,3.4,4.7,6,VISIT 5,55,NORMAL
ABC001,ABC001-201-18,162,BUN,Blood Urea Nitrogen (BUN),13.2,mg/dL,8,20,6,VISIT 5,55,NORMAL
ABC001,ABC001-201-18,162,CA,Calcium,9.22,mg/dL,8.5,10.5,6,VISIT 5,55,NORMAL
ABC001,ABC001-201-18,162,GLUC,Glucose,89.5,mg/dL,60,115,6,VISIT 5,55,NORMAL
ABC001,ABC001-201-18,163,ALB,Albumin,3.8,g/dL,3.4,4.7,7,VISIT 6,69,NORMAL
ABC001,ABC001-201-18,163,BUN,Blood Urea Nitrogen (BUN),14.8,mg/dL,8,20,7,VISIT 6,69,NORMAL
ABC001,ABC001-201-18,163,CA,Calcium,8.23,mg/dL,8.5,10.5,7,VISIT 6,69,LOW
ABC001,ABC001-201-18,163,GLUC,Glucose,96.8,mg/dL,60,115,7,VISIT 6,69,NORMAL
ABC001,ABC001-301-01,164,ALB,Albumin,4.0,g/dL,3.4,4.7,1,SCREENING,-14,NORMAL
ABC001,ABC001-301-01,164,BUN,Blood Urea Nitrogen (BUN),14.9,mg/dL,8,20,1,SCREENING,-14,NORMAL
ABC001,ABC001-301-01,164,CA,Calcium,9.97,mg/dL,8.5,10.5,1,SCREENING,-14,NORMAL
ABC001,ABC001-301-01,164,GLUC,Glucose,90.8,mg/dL,60,115,1,SCREENING,-14,NORMAL
ABC001,ABC001-301-01,165,ALB,Albumin,4.0,g/dL,3.4,4.7,2,BASELINE,1,NORMAL
ABC001,ABC001-301-01,165,BUN,Blood Urea Nitrogen (BUN),15.0,mg/dL,8,20,2,BASELINE,1,NORMAL
ABC001,ABC001-301-01,165,CA,Calcium,9.04,mg/dL,8.5,10.5,2,BASELINE,1,NORMAL
ABC001,ABC001-301-01,165,GLUC,Glucose,96.7,mg/dL,60,115,2,BASELINE,1,NORMAL
ABC001,ABC001-301-01,166,ALB,Albumin,4.2,g/dL,3.4,4.7,3,VISIT 2,14,NORMAL
ABC001,ABC001-301-01,166,BUN,Blood Urea Nitrogen (BUN),14.4,mg/dL,8,20,3,VISIT 2,14,NORMAL
ABC001,ABC001-301-01,166,CA,Calcium,8.86,mg/dL,8.5,10.5,3,VISIT 2,14,NORMAL
ABC001,ABC001-301-01,166,GLUC,Glucose,90.2,mg/dL,60,115,3,VISIT 2,14,NORMAL
ABC001,ABC001-301-01,167,ALB,Albumin,4.0,g/dL,3.4,4.7,4,VISIT 3,27,NORMAL
ABC001,ABC001-301-01,167,BUN,Blood Urea Nitrogen (BUN),11.2,mg/dL,8,20,4,VISIT 3,27,NORMAL
ABC001,ABC001-301-01,167,CA,Calcium,9.5,mg/dL,8.5,10.5,4,VISIT 3,27,NORMAL
ABC001,ABC001-301-01,167,GLUC,Glucose,96.4,mg/dL,60,115,4,VISIT 3,27,NORMAL
ABC001,ABC001-301-01,168,ALB,Albumin,4.1,g/dL,3.4,4.7,5,VISIT 4,41,NORMAL
ABC001,ABC001-301-01,168,BUN,Blood Urea Nitrogen (BUN),13.4,mg/dL,8,20,5,VISIT 4,41,NORMAL
ABC001,ABC001-301-01,168,CA,Calcium,9.75,mg/dL,8.5,10.5,5,VISIT 4,41,NORMAL
ABC001,ABC001-301-01,168,GLUC,Glucose,88.2,mg/dL,60,115,5,VISIT 4,41,NORMAL
ABC001,ABC001-301-01,169,ALB,Albumin,4.4,g/dL,3.4,4.7,6,VISIT 5,54,NORMAL
ABC001,ABC001-301-01,169,BUN,Blood Urea Nitrogen (BUN),12.2,mg/dL,8,20,6,VISIT 5,54,NORMAL
ABC001,ABC001-301-01,169,CA,Calcium,10.11,mg/dL,8.5,10.5,6,VISIT 5,54,NORMAL
ABC001,ABC001-301-01,169,GLUC,Glucose,79.3,mg/dL,60,115,6,VISIT 5,54,NORMAL
ABC001,ABC001-301-01,170,ALB,Albumin,3.6,g/dL,3.4,4.7,7,VISIT 6,68,NORMAL
ABC001,ABC001-301-01,170,BUN,Blood Urea Nitrogen (BUN),17.2,mg/dL,8,20,7,VISIT 6,68,NORMAL
ABC001,ABC001-301-01,170,CA,Calcium,9.6,mg/dL,8.5,10.5,7,VISIT 6,68,NORMAL
ABC001,ABC001-301-01,170,GLUC,Glucose,88.5,mg/dL,60,115,7,VISIT 6,68,NORMAL
ABC001,ABC001-301-02,171,ALB,Albumin,4.4,g/dL,3.4,4.7,1,SCREENING,-15,NORMAL
ABC001,ABC001-301-02,171,BUN,Blood Urea Nitrogen (BUN),10.1,mg/dL,8,20,1,SCREENING,-15,NORMAL
ABC001,ABC001-301-02,171,CA,Calcium,9.76,mg/dL,8.5,10.5,1,SCREENING,-15,NORMAL
ABC001,ABC001-301-02,171,GLUC,Glucose,95.5,mg/dL,60,115,1,SCREENING,-15,NORMAL
ABC001,ABC001-301-02,172,ALB,Albumin,3.9,g/dL,3.4,4.7,2,BASELINE,1,NORMAL
ABC001,ABC001-301-02,172,BUN,Blood Urea Nitrogen (BUN),20.5,mg/dL,8,20,2,BASELINE,1,HIGH
ABC001,ABC001-301-02,172,CA,Calcium,9.73,mg/dL,8.5,10.5,2,BASELINE,1,NORMAL
ABC001,ABC001-301-02,172,GLUC,Glucose,107.0,mg/dL,60,115,2,BASELINE,1,NORMAL
ABC001,ABC001-301-02,173,ALB,Albumin,3.9,g/dL,3.4,4.7,3,VISIT 2,15,NORMAL
ABC001,ABC001-301-02,173,BUN,Blood Urea Nitrogen (BUN),15.4,mg/dL,8,20,3,VISIT 2,15,NORMAL
ABC001,ABC001-301-02,173,CA,Calcium,9.81,mg/dL,8.5,10.5,3,VISIT 2,15,NORMAL
ABC001,ABC001-301-02,173,GLUC,Glucose,88.7,mg/dL,60,115,3,VISIT 2,15,NORMAL
ABC001,ABC001-301-02,174,ALB,Albumin,4.0,g/dL,3.4,4.7,4,VISIT 3,29,NORMAL
ABC001,ABC001-301-02,174,BUN,Blood Urea Nitrogen (BUN),15.8,mg/dL,8,20,4,VISIT 3,29,NORMAL
ABC001,ABC001-301-02,174,CA,Calcium,9.62,mg/dL,8.5,10.5,4,VISIT 3,29,NORMAL
ABC001,ABC001-301-02,174,GLUC,Glucose,78.8,mg/dL,60,115,4,VISIT 3,29,NORMAL
ABC001,ABC001-301-02,175,ALB,Albumin,4.2,g/dL,3.4,4.7,5,VISIT 4,43,NORMAL
ABC001,ABC001-301-02,175,BUN,Blood Urea Nitrogen (BUN),18.7,mg/dL,8,20,5,VISIT 4,43,NORMAL
ABC001,ABC001-301-02,175,CA,Calcium,9.18,mg/dL,8.5,10.5,5,VISIT 4,43,NORMAL
ABC001,ABC001-301-02,175,GLUC,Glucose,82.4,mg/dL,60,115,5,VISIT 4,43,NORMAL
ABC001,ABC001-301-02,176,ALB,Albumin,3.8,g/dL,3.4,4.7,6,VISIT 5,57,NORMAL
ABC001,ABC001-301-02,176,BUN,Blood Urea Nitrogen (BUN),10.3,mg/dL,8,20,6,VISIT 5,57,NORMAL
ABC001,ABC001-301-02,176,CA,Calcium,9.06,mg/dL,8.5,10.5,6,VISIT 5,57,NORMAL
ABC001,ABC001-301-02,176,GLUC,Glucose,77.0,mg/dL,60,115,6,VISIT 5,57,NORMAL
ABC001,ABC001-301-02,177,ALB,Albumin,4.0,g/dL,3.4,4.7,7,VISIT 6,69,NORMAL
ABC001,ABC001-301-02,177,BUN,Blood Urea Nitrogen (BUN),11.8,mg/dL,8,20,7,VISIT 6,69,NORMAL
ABC001,ABC001-301-02,177,CA,Calcium,9.42,mg/dL,8.5,10.5,7,VISIT 6,69,NORMAL
ABC001,ABC001-301-02,177,GLUC,Glucose,103.9,mg/dL,60,115,7,VISIT 6,69,NORMAL
ABC001,ABC001-301-03,178,ALB,Albumin,4.2,g/dL,3.4,4.7,1,SCREENING,-14,NORMAL
ABC001,ABC001-301-03,178,BUN,Blood Urea Nitrogen (BUN),14.7,mg/dL,8,20,1,SCREENING,-14,NORMAL
ABC001,ABC001-301-03,178,CA,Calcium,9.35,mg/dL,8.5,10.5,1,SCREENING,-14,NORMAL
ABC001,ABC001-301-03,178,GLUC,Glucose,84.9,mg/dL,60,115,1,SCREENING,-14,NORMAL
ABC001,ABC001-301-03,179,ALB,Albumin,4.2,g/dL,3.4,4.7,2,BASELINE,1,NORMAL
ABC001,ABC001-301-03,179,BUN,Blood Urea Nitrogen (BUN),12.4,mg/dL,8,20,2,BASELINE,1,NORMAL
ABC001,ABC001-301-03,179,CA,Calcium,10.43,mg/dL,8.5,10.5,2,BASELINE,1,NORMAL
ABC001,ABC001-301-03,179,GLUC,Glucose,108.6,mg/dL,60,115,2,BASELINE,1,NORMAL
ABC001,ABC001-301-03,180,ALB,Albumin,4.0,g/dL,3.4,4.7,3,VISIT 2,14,NORMAL
ABC001,ABC001-301-03,180,BUN,Blood Urea Nitrogen (BUN),12.1,mg/dL,8,20,3,VISIT 2,14,NORMAL
ABC001,ABC001-301-03,180,CA,Calcium,10.59,mg/dL,8.5,10.5,3,VISIT 2,14,HIGH
ABC001,ABC001-301-03,180,GLUC,Glucose,99.1,mg/dL,60,115,3,VISIT 2,14,NORMAL
ABC001,ABC001-301-03,181,ALB,Albumin,4.1,g/dL,3.4,4.7,4,VISIT 3,28,NORMAL
ABC001,ABC001-301-03,181,BUN,Blood Urea Nitrogen (BUN),10.5,mg/dL,8,20,4,VISIT 3,28,NORMAL
ABC001,ABC001-301-03,181,CA,Calcium,9.25,mg/dL,8.5,10.5,4,VISIT 3,28,NORMAL
ABC001,ABC001-301-03,181,GLUC,Glucose,90.4,mg/dL,60,115,4,VISIT 3,28,NORMAL
ABC001,ABC001-301-03,182,ALB,Albumin,3.4,g/dL,3.4,4.7,5,VISIT 4,39,NORMAL
ABC001,ABC001-301-03,182,BUN,Blood Urea Nitrogen (BUN),11.5,mg/dL,8,20,5,VISIT 4,39,NORMAL
ABC001,ABC001-301-03,182,CA,Calcium,9.57,mg/dL,8.5,10.5,5,VISIT 4,39,NORMAL
ABC001,ABC001-301-03,182,GLUC,Glucose,82.6,mg/dL,60,115,5,VISIT 4,39,NORMAL
ABC001,ABC001-301-03,183,ALB,Albumin,4.2,g/dL,3.4,4.7,6,VISIT 5,53,NORMAL
ABC001,ABC001-301-03,183,BUN,Blood Urea Nitrogen (BUN),15.4,mg/dL,8,20,6,VISIT 5,53,NORMAL
ABC001,ABC001-301-03,183,CA,Calcium,8.39,mg/dL,8.5,10.5,6,VISIT 5,53,LOW
ABC001,ABC001-301-03,183,GLUC,Glucose,84.5,mg/dL,60,115,6,VISIT 5,53,NORMAL
ABC001,ABC001-301-03,184,ALB,Albumin,3.8,g/dL,3.4,4.7,7,VISIT 6,67,NORMAL
ABC001,ABC001-301-03,184,BUN,Blood Urea Nitrogen (BUN),13.5,mg/dL,8,20,7,VISIT 6,67,NORMAL
ABC001,ABC001-301-03,184,CA,Calcium,9.54,mg/dL,8.5,10.5,7,VISIT 6,67,NORMAL
ABC001,ABC001-301-03,184,GLUC,Glucose,99.4,mg/dL,60,115,7,VISIT 6,67,NORMAL
ABC001,ABC001-301-04,185,ALB,Albumin,4.4,g/dL,3.4,4.7,1,SCREENING,-13,NORMAL
ABC001,ABC001-301-04,185,BUN,Blood Urea Nitrogen (BUN),15.9,mg/dL,8,20,1,SCREENING,-13,NORMAL
ABC001,ABC001-301-04,185,CA,Calcium,8.92,mg/dL,8.5,10.5,1,SCREENING,-13,NORMAL
ABC001,ABC001-301-04,185,GLUC,Glucose,90.2,mg/dL,60,115,1,SCREENING,-13,NORMAL
ABC001,ABC001-301-04,186,ALB,Albumin,4.0,g/dL,3.4,4.7,2,BASELINE,1,NORMAL
ABC001,ABC001-301-04,186,BUN,Blood Urea Nitrogen (BUN),10.5,mg/dL,8,20,2,BASELINE,1,NORMAL
ABC001,ABC001-301-04,186,CA,Calcium,9.3,mg/dL,8.5,10.5,2,BASELINE,1,NORMAL
ABC001,ABC001-301-04,186,GLUC,Glucose,86.3,mg/dL,60,115,2,BASELINE,1,NORMAL
ABC001,ABC001-301-04,187,ALB,Albumin,3.8,g/dL,3.4,4.7,3,VISIT 2,15,NORMAL
ABC001,ABC001-301-04,187,BUN,Blood Urea Nitrogen (BUN),9.3,mg/dL,8,20,3,VISIT 2,15,NORMAL
ABC001,ABC001-301-04,187,CA,Calcium,9.88,mg/dL,8.5,10.5,3,VISIT 2,15,NORMAL
ABC001,ABC001-301-04,187,GLUC,Glucose,90.4,mg/dL,60,115,3,VISIT 2,15,NORMAL
ABC001,ABC001-301-05,188,ALB,Albumin,4.1,g/dL,3.4,4.7,1,SCREENING,-14,NORMAL
ABC001,ABC001-301-05,188,BUN,Blood Urea Nitrogen (BUN),19.3,mg/dL,8,20,1,SCREENING,-14,NORMAL
ABC001,ABC001-301-05,188,CA,Calcium,8.91,mg/dL,8.5,10.5,1,SCREENING,-14,NORMAL
ABC001,ABC001-301-05,188,GLUC,Glucose,76.7,mg/dL,60,115,1,SCREENING,-14,NORMAL
ABC001,ABC001-301-05,189,ALB,Albumin,3.7,g/dL,3.4,4.7,2,BASELINE,1,NORMAL
ABC001,ABC001-301-05,189,BUN,Blood Urea Nitrogen (BUN),12.0,mg/dL,8,20,2,BASELINE,1,NORMAL
ABC001,ABC001-301-05,189,CA,Calcium,9.99,mg/dL,8.5,10.5,2,BASELINE,1,NORMAL
ABC001,ABC001-301-05,189,GLUC,Glucose,85.2,mg/dL,60,115,2,BASELINE,1,NORMAL
ABC001,ABC001-301-05,190,ALB,Albumin,3.9,g/dL,3.4,4.7,3,VISIT 2,16,NORMAL
ABC001,ABC001-301-05,190,BUN,Blood Urea Nitrogen (BUN),17.9,mg/dL,8,20,3,VISIT 2,16,NORMAL
ABC001,ABC001-301-05,190,CA,Calcium,9.62,mg/dL,8.5,10.5,3,VISIT 2,16,NORMAL
ABC001,ABC001-301-05,190,GLUC,Glucose,81.8,mg/dL,60,115,3,VISIT 2,16,NORMAL
ABC001,ABC001-301-05,191,ALB,Albumin,3.6,g/dL,3.4,4.7,4,VISIT 3,30,NORMAL
ABC001,ABC001-301-05,191,BUN,Blood Urea Nitrogen (BUN),12.0,mg/dL,8,20,4,VISIT 3,30,NORMAL
ABC001,ABC001-301-05,191,CA,Calcium,8.82,mg/dL,8.5,10.5,4,VISIT 3,30,NORMAL
ABC001,ABC001-301-05,191,GLUC,Glucose,83.8,mg/dL,60,115,4,VISIT 3,30,NORMAL
ABC001,ABC001-301-05,192,ALB,Albumin,4.4,g/dL,3.4,4.7,5,VISIT 4,43,NORMAL
ABC001,ABC001-301-05,192,BUN,Blood Urea Nitrogen (BUN),13.7,mg/dL,8,20,5,VISIT 4,43,NORMAL
ABC001,ABC001-301-05,192,CA,Calcium,8.91,mg/dL,8.5,10.5,5,VISIT 4,43,NORMAL
ABC001,ABC001-301-05,192,GLUC,Glucose,96.1,mg/dL,60,115,5,VISIT 4,43,NORMAL
ABC001,ABC001-301-05,193,ALB,Albumin,4.5,g/dL,3.4,4.7,6,VISIT 5,57,NORMAL
ABC001,ABC001-301-05,193,BUN,Blood Urea Nitrogen (BUN),12.8,mg/dL,8,20,6,VISIT 5,57,NORMAL
ABC001,ABC001-301-05,193,CA,Calcium,8.7,mg/dL,8.5,10.5,6,VISIT 5,57,NORMAL
ABC001,ABC001-301-05,193,GLUC,Glucose,76.6,mg/dL,60,115,6,VISIT 5,57,NORMAL
ABC001,ABC001-301-05,194,ALB,Albumin,3.3,g/dL,3.4,4.7,7,VISIT 6,68,LOW
ABC001,ABC001-301-05,194,BUN,Blood Urea Nitrogen (BUN),17.5,mg/dL,8,20,7,VISIT 6,68,NORMAL
ABC001,ABC001-301-05,194,CA,Calcium,9.59,mg/dL,8.5,10.5,7,VISIT 6,68,NORMAL
ABC001,ABC001-301-05,194,GLUC,Glucose,93.7,mg/dL,60,115,7,VISIT 6,68,NORMAL
ABC001,ABC001-301-06,195,ALB,Albumin,4.1,g/dL,3.4,4.7,1,SCREENING,-15,NORMAL
ABC001,ABC001-301-06,195,BUN,Blood Urea Nitrogen (BUN),10.5,mg/dL,8,20,1,SCREENING,-15,NORMAL
ABC001,ABC001-301-06,195,CA,Calcium,10.2,mg/dL,8.5,10.5,1,SCREENING,-15,NORMAL
ABC001,ABC001-301-06,195,GLUC,Glucose,81.8,mg/dL,60,115,1,SCREENING,-15,NORMAL
ABC001,ABC001-301-06,196,ALB,Albumin,3.9,g/dL,3.4,4.7,2,BASELINE,1,NORMAL
ABC001,ABC001-301-06,196,BUN,Blood Urea Nitrogen (BUN),18.8,mg/dL,8,20,2,BASELINE,1,NORMAL
ABC001,ABC001-301-06,196,CA,Calcium,8.99,mg/dL,8.5,10.5,2,BASELINE,1,NORMAL
ABC001,ABC001-301-06,196,GLUC,Glucose,90.6,mg/dL,60,115,2,BASELINE,1,NORMAL
ABC001,ABC001-301-06,197,ALB,Albumin,4.2,g/dL,3.4,4.7,3,VISIT 2,14,NORMAL
ABC001,ABC001-301-06,197,BUN,Blood Urea Nitrogen (BUN),7.8,mg/dL,8,20,3,VISIT 2,14,LOW
ABC001,ABC001-301-06,197,CA,Calcium,9.4,mg/dL,8.5,10.5,3,VISIT 2,14,NORMAL
ABC001,ABC001-301-06,197,GLUC,Glucose,87.5,mg/dL,60,115,3,VISIT 2,14,NORMAL
ABC001,ABC001-301-06,198,ALB,Albumin,4.3,g/dL,3.4,4.7,4,VISIT 3,29,NORMAL
ABC001,ABC001-301-06,198,BUN,Blood Urea Nitrogen (BUN),8.8,mg/dL,8,20,4,VISIT 3,29,NORMAL
ABC001,ABC001-301-06,198,CA,Calcium,9.42,mg/dL,8.5,10.5,4,VISIT 3,29,NORMAL
ABC001,ABC001-301-06,198,GLUC,Glucose,83.0,mg/dL,60,115,4,VISIT 3,29,NORMAL
ABC001,ABC001-301-06,199,ALB,Albumin,4.5,g/dL,3.4,4.7,5,VISIT 4,43,NORMAL
ABC001,ABC001-301-06,199,BUN,Blood Urea Nitrogen (BUN),9.3,mg/dL,8,20,5,VISIT 4,43,NORMAL
ABC001,ABC001-301-06,199,CA,Calcium,9.47,mg/dL,8.5,10.5,5,VISIT 4,43,NORMAL
ABC001,ABC001-301-06,199,GLUC,Glucose,69.9,mg/dL,60,115,5,VISIT 4,43,NORMAL
ABC001,ABC001-301-06,200,ALB,Albumin,3.5,g/dL,3.4,4.7,6,VISIT 5,57,NORMAL
ABC001,ABC001-301-06,200,BUN,Blood Urea Nitrogen (BUN),17.5,mg/dL,8,20,6,VISIT 5,57,NORMAL
ABC001,ABC001-301-06,200,CA,Calcium,9.31,mg/dL,8.5,10.5,6,VISIT 5,57,NORMAL
ABC001,ABC001-301-06,200,GLUC,Glucose,77.9,mg/dL,60,115,6,VISIT 5,57,NORMAL
ABC001,ABC001-301-06,201,ALB,Albumin,3.9,g/dL,3.4,4.7,7,VISIT 6,71,NORMAL
ABC001,ABC001-301-06,201,BUN,Blood Urea Nitrogen (BUN),11.2,mg/dL,8,20,7,VISIT 6,71,NORMAL
ABC001,ABC001-301-06,201,CA,Calcium,9.39,mg/dL,8.5,10.5,7,VISIT 6,71,NORMAL
ABC001,ABC001-301-06,201,GLUC,Glucose,96.3,mg/dL,60,115,7,VISIT 6,71,NORMAL
ABC001,ABC001-302-01,202,ALB,Albumin,4.0,g/dL,3.4,4.7,1,SCREENING,-14,NORMAL
ABC001,ABC001-302-01,202,BUN,Blood Urea Nitrogen (BUN),19.8,mg/dL,8,20,1,SCREENING,-14,NORMAL
ABC001,ABC001-302-01,202,CA,Calcium,9.1,mg/dL,8.5,10.5,1,SCREENING,-14,NORMAL
ABC001,ABC001-302-01,202,GLUC,Glucose,77.4,mg/dL,60,115,1,SCREENING,-14,NORMAL
ABC001,ABC001-302-01,203,ALB,Albumin,4.1,g/dL,3.4,4.7,2,BASELINE,1,NORMAL
ABC001,ABC001-302-01,203,BUN,Blood Urea Nitrogen (BUN),10.6,mg/dL,8,20,2,BASELINE,1,NORMAL
ABC001,ABC001-302-01,203,CA,Calcium,9.09,mg/dL,8.5,10.5,2,BASELINE,1,NORMAL
ABC001,ABC001-302-01,203,GLUC,Glucose,101.2,mg/dL,60,115,2,BASELINE,1,NORMAL
ABC001,ABC001-302-01,204,ALB,Albumin,3.9,g/dL,3.4,4.7,3,VISIT 2,14,NORMAL
ABC001,ABC001-302-01,204,BUN,Blood Urea Nitrogen (BUN),16.1,mg/dL,8,20,3,VISIT 2,14,NORMAL
ABC001,ABC001-302-01,204,CA,Calcium,9.03,mg/dL,8.5,10.5,3,VISIT 2,14,NORMAL
ABC001,ABC001-302-01,204,GLUC,Glucose,103.7,mg/dL,60,115,3,VISIT 2,14,NORMAL
ABC001,ABC001-302-01,205,ALB,Albumin,3.5,g/dL,3.4,4.7,4,VISIT 3,27,NORMAL
ABC001,ABC001-302-01,205,BUN,Blood Urea Nitrogen (BUN),15.9,mg/dL,8,20,4,VISIT 3,27,NORMAL
ABC001,ABC001-302-01,205,CA,Calcium,9.82,mg/dL,8.5,10.5,4,VISIT 3,27,NORMAL
ABC001,ABC001-302-01,205,GLUC,Glucose,69.0,mg/dL,60,115,4,VISIT 3,27,NORMAL
ABC001,ABC001-302-01,206,ALB,Albumin,4.6,g/dL,3.4,4.7,5,VISIT 4,41,NORMAL
ABC001,ABC001-302-01,206,BUN,Blood Urea Nitrogen (BUN),11.7,mg/dL,8,20,5,VISIT 4,41,NORMAL
ABC001,ABC001-302-01,206,CA,Calcium,10.02,mg/dL,8.5,10.5,5,VISIT 4,41,NORMAL
ABC001,ABC001-302-01,206,GLUC,Glucose,86.9,mg/dL,60,115,5,VISIT 4,41,NORMAL
ABC001,ABC001-302-01,207,ALB,Albumin,3.9,g/dL,3.4,4.7,6,VISIT 5,54,NORMAL
ABC001,ABC001-302-01,207,BUN,Blood Urea Nitrogen (BUN),13.8,mg/dL,8,20,6,VISIT 5,54,NORMAL
ABC001,ABC001-302-01,207,CA,Calcium,9.42,mg/dL,8.5,10.5,6,VISIT 5,54,NORMAL
ABC001,ABC001-302-01,207,GLUC,Glucose,68.8,mg/dL,60,115,6,VISIT 5,54,NORMAL
ABC001,ABC001-302-01,208,ALB,Albumin,4.0,g/dL,3.4,4.7,7,VISIT 6,68,NORMAL
ABC001,ABC001-302-01,208,BUN,Blood Urea Nitrogen (BUN),10.1,mg/dL,8,20,7,VISIT 6,68,NORMAL
ABC001,ABC001-302-01,208,CA,Calcium,9.94,mg/dL,8.5,10.5,7,VISIT 6,68,NORMAL
ABC001,ABC001-302-01,208,GLUC,Glucose,75.2,mg/dL,60,115,7,VISIT 6,68,NORMAL
ABC001,ABC001-302-02,209,ALB,Albumin,3.7,g/dL,3.4,4.7,1,SCREENING,-11,NORMAL
ABC001,ABC001-302-02,209,BUN,Blood Urea Nitrogen (BUN),15.4,mg/dL,8,20,1,SCREENING,-11,NORMAL
ABC001,ABC001-302-02,209,CA,Calcium,10.15,mg/dL,8.5,10.5,1,SCREENING,-11,NORMAL
ABC001,ABC001-302-02,209,GLUC,Glucose,78.7,mg/dL,60,115,1,SCREENING,-11,NORMAL
ABC001,ABC001-302-02,210,ALB,Albumin,4.2,g/dL,3.4,4.7,2,BASELINE,1,NORMAL
ABC001,ABC001-302-02,210,BUN,Blood Urea Nitrogen (BUN),13.4,mg/dL,8,20,2,BASELINE,1,NORMAL
ABC001,ABC001-302-02,210,CA,Calcium,9.69,mg/dL,8.5,10.5,2,BASELINE,1,NORMAL
ABC001,ABC001-302-02,210,GLUC,Glucose,95.8,mg/dL,60,115,2,BASELINE,1,NORMAL
ABC001,ABC001-302-02,211,ALB,Albumin,3.7,g/dL,3.4,4.7,3,VISIT 2,15,NORMAL
ABC001,ABC001-302-02,211,BUN,Blood Urea Nitrogen (BUN),16.0,mg/dL,8,20,3,VISIT 2,15,NORMAL
ABC001,ABC001-302-02,211,CA,Calcium,10.0,mg/dL,8.5,10.5,3,VISIT 2,15,NORMAL
ABC001,ABC001-302-02,211,GLUC,Glucose,81.4,mg/dL,60,115,3,VISIT 2,15,NORMAL
ABC001,ABC001-302-02,212,ALB,Albumin,4.0,g/dL,3.4,4.7,4,VISIT 3,29,NORMAL
ABC001,ABC001-302-02,212,BUN,Blood Urea Nitrogen (BUN),16.9,mg/dL,8,20,4,VISIT 3,29,NORMAL
ABC001,ABC001-302-02,212,CA,Calcium,9.74,mg/dL,8.5,10.5,4,VISIT 3,29,NORMAL
ABC001,ABC001-302-02,212,GLUC,Glucose,89.6,mg/dL,60,115,4,VISIT 3,29,NORMAL
ABC001,ABC001-302-02,213,ALB,Albumin,4.2,g/dL,3.4,4.7,5,VISIT 4,43,NORMAL
ABC001,ABC001-302-02,213,BUN,Blood Urea Nitrogen (BUN),14.1,mg/dL,8,20,5,VISIT 4,43,NORMAL
ABC001,ABC001-302-02,213,CA,Calcium,9.35,mg/dL,8.5,10.5,5,VISIT 4,43,NORMAL
ABC001,ABC001-302-02,213,GLUC,Glucose,101.3,mg/dL,60,115,5,VISIT 4,43,NORMAL
ABC001,ABC001-302-02,214,ALB,Albumin,4.2,g/dL,3.4,4.7,6,VISIT 5,58,NORMAL
ABC001,ABC001-302-02,214,BUN,Blood Urea Nitrogen (BUN),15.4,mg/dL,8,20,6,VISIT 5,58,NORMAL
ABC001,ABC001-302-02,214,CA,Calcium,8.78,mg/dL,8.5,10.5,6,VISIT 5,58,NORMAL
ABC001,ABC001-302-02,214,GLUC,Glucose,108.4,mg/dL,60,115,6,VISIT 5,58,NORMAL
ABC001,ABC001-302-02,215,ALB,Albumin,4.1,g/dL,3.4,4.7,7,VISIT 6,69,NORMAL
ABC001,ABC001-302-02,215,BUN,Blood Urea Nitrogen (BUN),14.5,mg/dL,8,20,7,VISIT 6,69,NORMAL
ABC001,ABC001-302-02,215,CA,Calcium,9.46,mg/dL,8.5,10.5,7,VISIT 6,69,NORMAL
ABC001,ABC001-302-02,215,GLUC,Glucose,68.5,mg/dL,60,115,7,VISIT 6,69,NORMAL
ABC001,ABC001-302-03,216,ALB,Albumin,4.2,g/dL,3.4,4.7,1,SCREENING,-12,NORMAL
ABC001,ABC001-302-03,216,BUN,Blood Urea Nitrogen (BUN),10.2,mg/dL,8,20,1,SCREENING,-12,NORMAL
ABC001,ABC001-302-03,216,CA,Calcium,9.06,mg/dL,8.5,10.5,1,SCREENING,-12,NORMAL
ABC001,ABC001-302-03,216,GLUC,Glucose,96.3,mg/dL,60,115,1,SCREENING,-12,NORMAL
ABC001,ABC001-302-03,217,ALB,Albumin,4.4,g/dL,3.4,4.7,2,BASELINE,1,NORMAL
ABC001,ABC001-302-03,217,BUN,Blood Urea Nitrogen (BUN),15.6,mg/dL,8,20,2,BASELINE,1,NORMAL
ABC001,ABC001-302-03,217,CA,Calcium,9.33,mg/dL,8.5,10.5,2,BASELINE,1,NORMAL
ABC001,ABC001-302-03,217,GLUC,Glucose,68.4,mg/dL,60,115,2,BASELINE,1,NORMAL
ABC001,ABC001-303-01,218,ALB,Albumin,4.1,g/dL,3.4,4.7,1,SCREENING,,NORMAL
ABC001,ABC001-303-01,218,BUN,Blood Urea Nitrogen (BUN),12.5,mg/dL,8,20,1,SCREENING,,NORMAL
ABC001,ABC001-303-01,218,CA,Calcium,10.23,mg/dL,8.5,10.5,1,SCREENING,,NORMAL
ABC001,ABC001-303-01,218,GLUC,Glucose,83.0,mg/dL,60,115,1,SCREENING,,NORMAL
ABC001,ABC001-303-02,219,ALB,Albumin,3.7,g/dL,3.4,4.7,1,SCREENING,-14,NORMAL
ABC001,ABC001-303-02,219,BUN,Blood Urea Nitrogen (BUN),11.4,mg/dL,8,20,1,SCREENING,-14,NORMAL
ABC001,ABC001-303-02,219,CA,Calcium,8.74,mg/dL,8.5,10.5,1,SCREENING,-14,NORMAL
ABC001,ABC001-303-02,219,GLUC,Glucose,101.4,mg/dL,60,115,1,SCREENING,-14,NORMAL
ABC001,ABC001-303-02,220,ALB,Albumin,4.3,g/dL,3.4,4.7,2,BASELINE,1,NORMAL
ABC001,ABC001-303-02,220,BUN,Blood Urea Nitrogen (BUN),15.2,mg/dL,8,20,2,BASELINE,1,NORMAL
ABC001,ABC001-303-02,220,CA,Calcium,9.95,mg/dL,8.5,10.5,2,BASELINE,1,NORMAL
ABC001,ABC001-303-02,220,GLUC,Glucose,103.8,mg/dL,60,115,2,BASELINE,1,NORMAL
ABC001,ABC001-303-02,221,ALB,Albumin,4.2,g/dL,3.4,4.7,3,VISIT 2,15,NORMAL
ABC001,ABC001-303-02,221,BUN,Blood Urea Nitrogen (BUN),14.5,mg/dL,8,20,3,VISIT 2,15,NORMAL
ABC001,ABC001-303-02,221,CA,Calcium,9.13,mg/dL,8.5,10.5,3,VISIT 2,15,NORMAL
ABC001,ABC001-303-02,221,GLUC,Glucose,79.4,mg/dL,60,115,3,VISIT 2,15,NORMAL
ABC001,ABC001-304-01,222,ALB,Albumin,4.3,g/dL,3.4,4.7,1,SCREENING,-14,NORMAL
ABC001,ABC001-304-01,222,BUN,Blood Urea Nitrogen (BUN),14.8,mg/dL,8,20,1,SCREENING,-14,NORMAL
ABC001,ABC001-304-01,222,CA,Calcium,9.13,mg/dL,8.5,10.5,1,SCREENING,-14,NORMAL
ABC001,ABC001-304-01,222,GLUC,Glucose,89.4,mg/dL,60,115,1,SCREENING,-14,NORMAL
ABC001,ABC001-304-01,223,ALB,Albumin,4.1,g/dL,3.4,4.7,2,BASELINE,1,NORMAL
ABC001,ABC001-304-01,223,BUN,Blood Urea Nitrogen (BUN),12.7,mg/dL,8,20,2,BASELINE,1,NORMAL
ABC001,ABC001-304-01,223,CA,Calcium,9.08,mg/dL,8.5,10.5,2,BASELINE,1,NORMAL
ABC001,ABC001-304-01,223,GLUC,Glucose,69.8,mg/dL,60,115,2,BASELINE,1,NORMAL
ABC001,ABC001-304-01,224,ALB,Albumin,4.6,g/dL,3.4,4.7,3,VISIT 2,14,NORMAL
ABC001,ABC001-304-01,224,BUN,Blood Urea Nitrogen (BUN),13.8,mg/dL,8,20,3,VISIT 2,14,NORMAL
ABC001,ABC001-304-01,224,CA,Calcium,9.19,mg/dL,8.5,10.5,3,VISIT 2,14,NORMAL
ABC001,ABC001-304-01,224,GLUC,Glucose,76.7,mg/dL,60,115,3,VISIT 2,14,NORMAL
ABC001,ABC001-304-01,225,ALB,Albumin,4.1,g/dL,3.4,4.7,4,VISIT 3,27,NORMAL
ABC001,ABC001-304-01,225,BUN,Blood Urea Nitrogen (BUN),13.1,mg/dL,8,20,4,VISIT 3,27,NORMAL
ABC001,ABC001-304-01,225,CA,Calcium,9.19,mg/dL,8.5,10.5,4,VISIT 3,27,NORMAL
ABC001,ABC001-304-01,225,GLUC,Glucose,90.1,mg/dL,60,115,4,VISIT 3,27,NORMAL
ABC001,ABC001-304-01,226,ALB,Albumin,4.2,g/dL,3.4,4.7,5,VISIT 4,40,NORMAL
ABC001,ABC001-304-01,226,BUN,Blood Urea Nitrogen (BUN),19.4,mg/dL,8,20,5,VISIT 4,40,NORMAL
ABC001,ABC001-304-01,226,CA,Calcium,8.46,mg/dL,8.5,10.5,5,VISIT 4,40,LOW
ABC001,ABC001-304-01,226,GLUC,Glucose,80.9,mg/dL,60,115,5,VISIT 4,40,NORMAL
ABC001,ABC001-304-01,227,ALB,Albumin,4.1,g/dL,3.4,4.7,6,VISIT 5,53,NORMAL
ABC001,ABC001-304-01,227,BUN,Blood Urea Nitrogen (BUN),14.2,mg/dL,8,20,6,VISIT 5,53,NORMAL
ABC001,ABC001-304-01,227,CA,Calcium,9.43,mg/dL,8.5,10.5,6,VISIT 5,53,NORMAL
ABC001,ABC001-304-01,227,GLUC,Glucose,96.8,mg/dL,60,115,6,VISIT 5,53,NORMAL
ABC001,ABC001-304-01,228,ALB,Albumin,4.1,g/dL,3.4,4.7,7,VISIT 6,68,NORMAL
ABC001,ABC001-304-01,228,BUN,Blood Urea Nitrogen (BUN),16.3,mg/dL,8,20,7,VISIT 6,68,NORMAL
ABC001,ABC001-304-01,228,CA,Calcium,9.6,mg/dL,8.5,10.5,7,VISIT 6,68,NORMAL
ABC001,ABC001-304-01,228,GLUC,Glucose,98.9,mg/dL,60,115,7,VISIT 6,68,NORMAL
ABC001,ABC001-304-02,229,ALB,Albumin,4.0,g/dL,3.4,4.7,1,SCREENING,-16,NORMAL
ABC001,ABC001-304-02,229,BUN,Blood Urea Nitrogen (BUN),14.4,mg/dL,8,20,1,SCREENING,-16,NORMAL
ABC001,ABC001-304-02,229,CA,Calcium,8.9,mg/dL,8.5,10.5,1,SCREENING,-16,NORMAL
ABC001,ABC001-304-02,229,GLUC,Glucose,87.2,mg/dL,60,115,1,SCREENING,-16,NORMAL
ABC001,ABC001-304-02,230,ALB,Albumin,3.8,g/dL,3.4,4.7,2,BASELINE,1,NORMAL
ABC001,ABC001-304-02,230,BUN,Blood Urea Nitrogen (BUN),8.8,mg/dL,8,20,2,BASELINE,1,NORMAL
ABC001,ABC001-304-02,230,CA,Calcium,9.79,mg/dL,8.5,10.5,2,BASELINE,1,NORMAL
ABC001,ABC001-304-02,230,GLUC,Glucose,77.5,mg/dL,60,115,2,BASELINE,1,NORMAL
ABC001,ABC001-304-02,231,ALB,Albumin,4.6,g/dL,3.4,4.7,3,VISIT 2,15,NORMAL
ABC001,ABC001-304-02,231,BUN,Blood Urea Nitrogen (BUN),15.1,mg/dL,8,20,3,VISIT 2,15,NORMAL
ABC001,ABC001-304-02,231,CA,Calcium,10.25,mg/dL,8.5,10.5,3,VISIT 2,15,NORMAL
ABC001,ABC001-304-02,231,GLUC,Glucose,85.3,mg/dL,60,115,3,VISIT 2,15,NORMAL
ABC001,ABC001-304-02,232,ALB,Albumin,4.2,g/dL,3.4,4.7,4,VISIT 3,27,NORMAL
ABC001,ABC001-304-02,232,BUN,Blood Urea Nitrogen (BUN),15.2,mg/dL,8,20,4,VISIT 3,27,NORMAL
ABC001,ABC001-304-02,232,CA,Calcium,9.16,mg/dL,8.5,10.5,4,VISIT 3,27,NORMAL
ABC001,ABC001-304-02,232,GLUC,Glucose,74.2,mg/dL,60,115,4,VISIT 3,27,NORMAL
ABC001,ABC001-304-02,233,ALB,Albumin,3.6,g/dL,3.4,4.7,5,VISIT 4,41,NORMAL
ABC001,ABC001-304-02,233,BUN,Blood Urea Nitrogen (BUN),14.3,mg/dL,8,20,5,VISIT 4,41,NORMAL
ABC001,ABC001-304-02,233,CA,Calcium,9.52,mg/dL,8.5,10.5,5,VISIT 4,41,NORMAL
ABC001,ABC001-304-02,233,GLUC,Glucose,93.7,mg/dL,60,115,5,VISIT 4,41,NORMAL
ABC001,ABC001-304-02,234,ALB,Albumin,4.1,g/dL,3.4,4.7,6,VISIT 5,55,NORMAL
ABC001,ABC001-304-02,234,BUN,Blood Urea Nitrogen (BUN),15.2,mg/dL,8,20,6,VISIT 5,55,NORMAL
ABC001,ABC001-304-02,234,CA,Calcium,9.29,mg/dL,8.5,10.5,6,VISIT 5,55,NORMAL
ABC001,ABC001-304-02,234,GLUC,Glucose,95.6,mg/dL,60,115,6,VISIT 5,55,NORMAL
ABC001,ABC001-304-02,235,ALB,Albumin,3.8,g/dL,3.4,4.7,7,VISIT 6,69,NORMAL
ABC001,ABC001-304-02,235,BUN,Blood Urea Nitrogen (BUN),14.4,mg/dL,8,20,7,VISIT 6,69,NORMAL
ABC001,ABC001-304-02,235,CA,Calcium,9.5,mg/dL,8.5,10.5,7,VISIT 6,69,NORMAL
ABC001,ABC001-304-02,235,GLUC,Glucose,77.8,mg/dL,60,115,7,VISIT 6,69,NORMAL
ABC001,ABC001-304-03,236,ALB,Albumin,4.6,g/dL,3.4,4.7,1,SCREENING,-15,NORMAL
ABC001,ABC001-304-03,236,BUN,Blood Urea Nitrogen (BUN),17.0,mg/dL,8,20,1,SCREENING,-15,NORMAL
ABC001,ABC001-304-03,236,CA,Calcium,8.97,mg/dL,8.5,10.5,1,SCREENING,-15,NORMAL
ABC001,ABC001-304-03,236,GLUC,Glucose,92.8,mg/dL,60,115,1,SCREENING,-15,NORMAL
ABC001,ABC001-304-03,237,ALB,Albumin,3.6,g/dL,3.4,4.7,2,BASELINE,1,NORMAL
ABC001,ABC001-304-03,237,BUN,Blood Urea Nitrogen (BUN),8.7,mg/dL,8,20,2,BASELINE,1,NORMAL
ABC001,ABC001-304-03,237,CA,Calcium,9.83,mg/dL,8.5,10.5,2,BASELINE,1,NORMAL
ABC001,ABC001-304-03,237,GLUC,Glucose,87.9,mg/dL,60,115,2,BASELINE,1,NORMAL
ABC001,ABC001-304-04,238,ALB,Albumin,3.6,g/dL,3.4,4.7,1,SCREENING,,NORMAL
ABC001,ABC001-304-04,238,BUN,Blood Urea Nitrogen (BUN),12.7,mg/dL,8,20,1,SCREENING,,NORMAL
ABC001,ABC001-304-04,238,CA,Calcium,9.99,mg/dL,8.5,10.5,1,SCREENING,,NORMAL
ABC001,ABC001-304-04,238,GLUC,Glucose,108.9,mg/dL,60,115,1,SCREENING,,NORMAL
ABC001,ABC001-304-05,239,ALB,Albumin,3.9,g/dL,3.4,4.7,1,SCREENING,-13,NORMAL
ABC001,ABC001-304-05,239,BUN,Blood Urea Nitrogen (BUN),10.3,mg/dL,8,20,1,SCREENING,-13,NORMAL
ABC001,ABC001-304-05,239,CA,Calcium,9.4,mg/dL,8.5,10.5,1,SCREENING,-13,NORMAL
ABC001,ABC001-304-05,239,GLUC,Glucose,70.5,mg/dL,60,115,1,SCREENING,-13,NORMAL
ABC001,ABC001-304-05,240,ALB,Albumin,4.0,g/dL,3.4,4.7,2,BASELINE,1,NORMAL
ABC001,ABC001-304-05,240,BUN,Blood Urea Nitrogen (BUN),11.5,mg/dL,8,20,2,BASELINE,1,NORMAL
ABC001,ABC001-304-05,240,CA,Calcium,9.18,mg/dL,8.5,10.5,2,BASELINE,1,NORMAL
ABC001,ABC001-304-05,240,GLUC,Glucose,92.9,mg/dL,60,115,2,BASELINE,1,NORMAL
ABC001,ABC001-304-05,241,ALB,Albumin,4.2,g/dL,3.4,4.7,3,VISIT 2,15,NORMAL
ABC001,ABC001-304-05,241,BUN,Blood Urea Nitrogen (BUN),20.7,mg/dL,8,20,3,VISIT 2,15,HIGH
ABC001,ABC001-304-05,241,CA,Calcium,9.68,mg/dL,8.5,10.5,3,VISIT 2,15,NORMAL
ABC001,ABC001-304-05,241,GLUC,Glucose,58.8,mg/dL,60,115,3,VISIT 2,15,LOW
ABC001,ABC001-304-05,242,ALB,Albumin,3.8,g/dL,3.4,4.7,4,VISIT 3,28,NORMAL
ABC001,ABC001-304-05,242,BUN,Blood Urea Nitrogen (BUN),12.7,mg/dL,8,20,4,VISIT 3,28,NORMAL
ABC001,ABC001-304-05,242,CA,Calcium,9.36,mg/dL,8.5,10.5,4,VISIT 3,28,NORMAL
ABC001,ABC001-304-05,242,GLUC,Glucose,90.3,mg/dL,60,115,4,VISIT 3,28,NORMAL
ABC001,ABC001-304-05,243,ALB,Albumin,4.1,g/dL,3.4,4.7,5,VISIT 4,42,NORMAL
ABC001,ABC001-304-05,243,BUN,Blood Urea Nitrogen (BUN),12.7,mg/dL,8,20,5,VISIT 4,42,NORMAL
ABC001,ABC001-304-05,243,CA,Calcium,10.05,mg/dL,8.5,10.5,5,VISIT 4,42,NORMAL
ABC001,ABC001-304-05,243,GLUC,Glucose,73.3,mg/dL,60,115,5,VISIT 4,42,NORMAL
ABC001,ABC001-304-06,244,ALB,Albumin,4.0,g/dL,3.4,4.7,1,SCREENING,-14,NORMAL
ABC001,ABC001-304-06,244,BUN,Blood Urea Nitrogen (BUN),9.3,mg/dL,8,20,1,SCREENING,-14,NORMAL
ABC001,ABC001-304-06,244,CA,Calcium,9.36,mg/dL,8.5,10.5,1,SCREENING,-14,NORMAL
ABC001,ABC001-304-06,244,GLUC,Glucose,102.2,mg/dL,60,115,1,SCREENING,-14,NORMAL
ABC001,ABC001-304-06,245,ALB,Albumin,4.0,g/dL,3.4,4.7,2,BASELINE,1,NORMAL
ABC001,ABC001-304-06,245,BUN,Blood Urea Nitrogen (BUN),11.3,mg/dL,8,20,2,BASELINE,1,NORMAL
ABC001,ABC001-304-06,245,CA,Calcium,9.36,mg/dL,8.5,10.5,2,BASELINE,1,NORMAL
ABC001,ABC001-304-06,245,GLUC,Glucose,78.2,mg/dL,60,115,2,BASELINE,1,NORMAL
ABC001,ABC001-304-06,246,ALB,Albumin,4.5,g/dL,3.4,4.7,3,VISIT 2,16,NORMAL
ABC001,ABC001-304-06,246,BUN,Blood Urea Nitrogen (BUN),12.3,mg/dL,8,20,3,VISIT 2,16,NORMAL
ABC001,ABC001-304-06,246,CA,Calcium,9.18,mg/dL,8.5,10.5,3,VISIT 2,16,NORMAL
ABC001,ABC001-304-06,246,GLUC,Glucose,76.3,mg/dL,60,115,3,VISIT 2,16,NORMAL
ABC001,ABC001-304-06,247,ALB,Albumin,4.1,g/dL,3.4,4.7,4,VISIT 3,31,NORMAL
ABC001,ABC001-304-06,247,BUN,Blood Urea Nitrogen (BUN),10.9,mg/dL,8,20,4,VISIT 3,31,NORMAL
ABC001,ABC001-304-06,247,CA,Calcium,10.4,mg/dL,8.5,10.5,4,VISIT 3,31,NORMAL
ABC001,ABC001-304-06,247,GLUC,Glucose,59.5,mg/dL,60,115,4,VISIT 3,31,LOW
ABC001,ABC001-304-06,248,ALB,Albumin,3.5,g/dL,3.4,4.7,5,VISIT 4,43,NORMAL
ABC001,ABC001-304-06,248,BUN,Blood Urea Nitrogen (BUN),9.0,mg/dL,8,20,5,VISIT 4,43,NORMAL
ABC001,ABC001-304-06,248,CA,Calcium,10.49,mg/dL,8.5,10.5,5,VISIT 4,43,NORMAL
ABC001,ABC001-304-06,248,GLUC,Glucose,93.1,mg/dL,60,115,5,VISIT 4,43,NORMAL
ABC001,ABC001-304-06,249,ALB,Albumin,3.7,g/dL,3.4,4.7,6,VISIT 5,56,NORMAL
ABC001,ABC001-304-06,249,BUN,Blood Urea Nitrogen (BUN),10.6,mg/dL,8,20,6,VISIT 5,56,NORMAL
ABC001,ABC001-304-06,249,CA,Calcium,9.52,mg/dL,8.5,10.5,6,VISIT 5,56,NORMAL
ABC001,ABC001-304-06,249,GLUC,Glucose,109.7,mg/dL,60,115,6,VISIT 5,56,NORMAL
ABC001,ABC001-304-06,250,ALB,Albumin,3.6,g/dL,3.4,4.7,7,VISIT 6,70,NORMAL
ABC001,ABC001-304-06,250,BUN,Blood Urea Nitrogen (BUN),13.5,mg/dL,8,20,7,VISIT 6,70,NORMAL
ABC001,ABC001-304-06,250,CA,Calcium,9.36,mg/dL,8.5,10.5,7,VISIT 6,70,NORMAL
ABC001,ABC001-304-06,250,GLUC,Glucose,94.8,mg/dL,60,115,7,VISIT 6,70,NORMAL
ABC001,ABC001-305-01,251,ALB,Albumin,4.4,g/dL,3.4,4.7,1,SCREENING,-13,NORMAL
ABC001,ABC001-305-01,251,BUN,Blood Urea Nitrogen (BUN),9.4,mg/dL,8,20,1,SCREENING,-13,NORMAL
ABC001,ABC001-305-01,251,CA,Calcium,9.16,mg/dL,8.5,10.5,1,SCREENING,-13,NORMAL
ABC001,ABC001-305-01,251,GLUC,Glucose,72.4,mg/dL,60,115,1,SCREENING,-13,NORMAL
ABC001,ABC001-305-01,252,ALB,Albumin,3.9,g/dL,3.4,4.7,2,BASELINE,1,NORMAL
ABC001,ABC001-305-01,252,BUN,Blood Urea Nitrogen (BUN),15.8,mg/dL,8,20,2,BASELINE,1,NORMAL
ABC001,ABC001-305-01,252,CA,Calcium,9.67,mg/dL,8.5,10.5,2,BASELINE,1,NORMAL
ABC001,ABC001-305-01,252,GLUC,Glucose,80.6,mg/dL,60,115,2,BASELINE,1,NORMAL
ABC001,ABC001-305-01,253,ALB,Albumin,4.0,g/dL,3.4,4.7,3,VISIT 2,15,NORMAL
ABC001,ABC001-305-01,253,BUN,Blood Urea Nitrogen (BUN),15.7,mg/dL,8,20,3,VISIT 2,15,NORMAL
ABC001,ABC001-305-01,253,CA,Calcium,10.29,mg/dL,8.5,10.5,3,VISIT 2,15,NORMAL
ABC001,ABC001-305-01,253,GLUC,Glucose,84.4,mg/dL,60,115,3,VISIT 2,15,NORMAL
ABC001,ABC001-305-02,254,ALB,Albumin,3.8,g/dL,3.4,4.7,1,SCREENING,-12,NORMAL
ABC001,ABC001-305-02,254,BUN,Blood Urea Nitrogen (BUN),13.3,mg/dL,8,20,1,SCREENING,-12,NORMAL
ABC001,ABC001-305-02,254,CA,Calcium,9.34,mg/dL,8.5,10.5,1,SCREENING,-12,NORMAL
ABC001,ABC001-305-02,254,GLUC,Glucose,102.4,mg/dL,60,115,1,SCREENING,-12,NORMAL
ABC001,ABC001-305-02,255,ALB,Albumin,4.5,g/dL,3.4,4.7,2,BASELINE,1,NORMAL
ABC001,ABC001-305-02,255,BUN,Blood Urea Nitrogen (BUN),14.7,mg/dL,8,20,2,BASELINE,1,NORMAL
ABC001,ABC001-305-02,255,CA,Calcium,9.68,mg/dL,8.5,10.5,2,BASELINE,1,NORMAL
ABC001,ABC001-305-02,255,GLUC,Glucose,111.4,mg/dL,60,115,2,BASELINE,1,NORMAL
ABC001,ABC001-305-02,256,ALB,Albumin,4.1,g/dL,3.4,4.7,3,VISIT 2,16,NORMAL
ABC001,ABC001-305-02,256,BUN,Blood Urea Nitrogen (BUN),12.9,mg/dL,8,20,3,VISIT 2,16,NORMAL
ABC001,ABC001-305-02,256,CA,Calcium,9.82,mg/dL,8.5,10.5,3,VISIT 2,16,NORMAL
ABC001,ABC001-305-02,256,GLUC,Glucose,79.3,mg/dL,60,115,3,VISIT 2,16,NORMAL
ABC001,ABC001-305-02,257,ALB,Albumin,4.3,g/dL,3.4,4.7,4,VISIT 3,30,NORMAL
ABC001,ABC001-305-02,257,BUN,Blood Urea Nitrogen (BUN),17.4,mg/dL,8,20,4,VISIT 3,30,NORMAL
ABC001,ABC001-305-02,257,CA,Calcium,8.99,mg/dL,8.5,10.5,4,VISIT 3,30,NORMAL
ABC001,ABC001-305-02,257,GLUC,Glucose,73.0,mg/dL,60,115,4,VISIT 3,30,NORMAL
ABC001,ABC001-305-03,258,ALB,Albumin,3.9,g/dL,3.4,4.7,1,SCREENING,-13,NORMAL
ABC001,ABC001-305-03,258,BUN,Blood Urea Nitrogen (BUN),9.9,mg/dL,8,20,1,SCREENING,-13,NORMAL
ABC001,ABC001-305-03,258,CA,Calcium,9.55,mg/dL,8.5,10.5,1,SCREENING,-13,NORMAL
ABC001,ABC001-305-03,258,GLUC,Glucose,86.5,mg/dL,60,115,1,SCREENING,-13,NORMAL
ABC001,ABC001-305-03,259,ALB,Albumin,3.1,g/dL,3.4,4.7,2,BASELINE,1,LOW
ABC001,ABC001-305-03,259,BUN,Blood Urea Nitrogen (BUN),14.4,mg/dL,8,20,2,BASELINE,1,NORMAL
ABC001,ABC001-305-03,259,CA,Calcium,9.78,mg/dL,8.5,10.5,2,BASELINE,1,NORMAL
ABC001,ABC001-305-03,259,GLUC,Glucose,93.5,mg/dL,60,115,2,BASELINE,1,NORMAL
ABC001,ABC001-305-03,260,ALB,Albumin,4.1,g/dL,3.4,4.7,3,VISIT 2,15,NORMAL
ABC001,ABC001-305-03,260,BUN,Blood Urea Nitrogen (BUN),14.0,mg/dL,8,20,3,VISIT 2,15,NORMAL
ABC001,ABC001-305-03,260,CA,Calcium,9.58,mg/dL,8.5,10.5,3,VISIT 2,15,NORMAL
ABC001,ABC001-305-03,260,GLUC,Glucose,103.8,mg/dL,60,115,3,VISIT 2,15,NORMAL
ABC001,ABC001-305-03,261,ALB,Albumin,4.0,g/dL,3.4,4.7,4,VISIT 3,28,NORMAL
ABC001,ABC001-305-03,261,BUN,Blood Urea Nitrogen (BUN),14.5,mg/dL,8,20,4,VISIT 3,28,NORMAL
ABC001,ABC001-305-03,261,CA,Calcium,10.09,mg/dL,8.5,10.5,4,VISIT 3,28,NORMAL
ABC001,ABC001-305-03,261,GLUC,Glucose,73.2,mg/dL,60,115,4,VISIT 3,28,NORMAL
ABC001,ABC001-305-03,262,ALB,Albumin,4.0,g/dL,3.4,4.7,5,VISIT 4,42,NORMAL
ABC001,ABC001-305-03,262,BUN,Blood Urea Nitrogen (BUN),9.2,mg/dL,8,20,5,VISIT 4,42,NORMAL
ABC001,ABC001-305-03,262,CA,Calcium,9.46,mg/dL,8.5,10.5,5,VISIT 4,42,NORMAL
ABC001,ABC001-305-03,262,GLUC,Glucose,92.3,mg/dL,60,115,5,VISIT 4,42,NORMAL
ABC001,ABC001-305-03,263,ALB,Albumin,4.1,g/dL,3.4,4.7,6,VISIT 5,55,NORMAL
ABC001,ABC001-305-03,263,BUN,Blood Urea Nitrogen (BUN),14.1,mg/dL,8,20,6,VISIT 5,55,NORMAL
ABC001,ABC001-305-03,263,CA,Calcium,8.94,mg/dL,8.5,10.5,6,VISIT 5,55,NORMAL
ABC001,ABC001-305-03,263,GLUC,Glucose,92.9,mg/dL,60,115,6,VISIT 5,55,NORMAL
ABC001,ABC001-305-03,264,ALB,Albumin,4.0,g/dL,3.4,4.7,7,VISIT 6,67,NORMAL
ABC001,ABC001-305-03,264,BUN,Blood Urea Nitrogen (BUN),22.5,mg/dL,8,20,7,VISIT 6,67,HIGH
ABC001,ABC001-305-03,264,CA,Calcium,9.32,mg/dL,8.5,10.5,7,VISIT 6,67,NORMAL
ABC001,ABC001-305-03,264,GLUC,Glucose,124.1,mg/dL,60,115,7,VISIT 6,67,HIGH
ABC001,ABC001-305-04,265,ALB,Albumin,3.7,g/dL,3.4,4.7,1,SCREENING,-14,NORMAL
ABC001,ABC001-305-04,265,BUN,Blood Urea Nitrogen (BUN),15.4,mg/dL,8,20,1,SCREENING,-14,NORMAL
ABC001,ABC001-305-04,265,CA,Calcium,9.56,mg/dL,8.5,10.5,1,SCREENING,-14,NORMAL
ABC001,ABC001-305-04,265,GLUC,Glucose,76.7,mg/dL,60,115,1,SCREENING,-14,NORMAL
ABC001,ABC001-305-04,266,ALB,Albumin,3.6,g/dL,3.4,4.7,2,BASELINE,1,NORMAL
ABC001,ABC001-305-04,266,BUN,Blood Urea Nitrogen (BUN),9.4,mg/dL,8,20,2,BASELINE,1,NORMAL
ABC001,ABC001-305-04,266,CA,Calcium,9.26,mg/dL,8.5,10.5,2,BASELINE,1,NORMAL
ABC001,ABC001-305-04,266,GLUC,Glucose,86.8,mg/dL,60,115,2,BASELINE,1,NORMAL
ABC001,ABC001-305-04,267,ALB,Albumin,4.0,g/dL,3.4,4.7,3,VISIT 2,13,NORMAL
ABC001,ABC001-305-04,267,BUN,Blood Urea Nitrogen (BUN),12.6,mg/dL,8,20,3,VISIT 2,13,NORMAL
ABC001,ABC001-305-04,267,CA,Calcium,9.79,mg/dL,8.5,10.5,3,VISIT 2,13,NORMAL
ABC001,ABC001-305-04,267,GLUC,Glucose,82.4,mg/dL,60,115,3,VISIT 2,13,NORMAL
ABC001,ABC001-305-04,268,ALB,Albumin,3.9,g/dL,3.4,4.7,4,VISIT 3,27,NORMAL
ABC001,ABC001-305-04,268,BUN,Blood Urea Nitrogen (BUN),13.6,mg/dL,8,20,4,VISIT 3,27,NORMAL
ABC001,ABC001-305-04,268,CA,Calcium,9.78,mg/dL,8.5,10.5,4,VISIT 3,27,NORMAL
ABC001,ABC001-305-04,268,GLUC,Glucose,60.1,mg/dL,60,115,4,VISIT 3,27,NORMAL
ABC001,ABC001-305-04,269,ALB,Albumin,3.6,g/dL,3.4,4.7,5,VISIT 4,39,NORMAL
ABC001,ABC001-305-04,269,BUN,Blood Urea Nitrogen (BUN),12.4,mg/dL,8,20,5,VISIT 4,39,NORMAL
ABC001,ABC001-305-04,269,CA,Calcium,8.99,mg/dL,8.5,10.5,5,VISIT 4,39,NORMAL
ABC001,ABC001-305-04,269,GLUC,Glucose,74.3,mg/dL,60,115,5,VISIT 4,39,NORMAL
ABC001,ABC001-305-04,270,ALB,Albumin,4.4,g/dL,3.4,4.7,6,VISIT 5,52,NORMAL
ABC001,ABC001-305-04,270,BUN,Blood Urea Nitrogen (BUN),12.9,mg/dL,8,20,6,VISIT 5,52,NORMAL
ABC001,ABC001-305-04,270,CA,Calcium,9.94,mg/dL,8.5,10.5,6,VISIT 5,52,NORMAL
ABC001,ABC001-305-04,270,GLUC,Glucose,104.3,mg/dL,60,115,6,VISIT 5,52,NORMAL
ABC001,ABC001-305-04,271,ALB,Albumin,4.4,g/dL,3.4,4.7,7,VISIT 6,66,NORMAL
ABC001,ABC001-305-04,271,BUN,Blood Urea Nitrogen (BUN),10.7,mg/dL,8,20,7,VISIT 6,66,NORMAL
ABC001,ABC001-305-04,271,CA,Calcium,8.52,mg/dL,8.5,10.5,7,VISIT 6,66,NORMAL
ABC001,ABC001-305-04,271,GLUC,Glucose,97.4,mg/dL,60,115,7,VISIT 6,66,NORMAL
ABC001,ABC001-401-01,272,ALB,Albumin,3.7,g/dL,3.4,4.7,1,SCREENING,-12,NORMAL
ABC001,ABC001-401-01,272,BUN,Blood Urea Nitrogen (BUN),14.7,mg/dL,8,20,1,SCREENING,-12,NORMAL
ABC001,ABC001-401-01,272,CA,Calcium,9.12,mg/dL,8.5,10.5,1,SCREENING,-12,NORMAL
ABC001,ABC001-401-01,272,GLUC,Glucose,88.6,mg/dL,60,115,1,SCREENING,-12,NORMAL
ABC001,ABC001-401-01,273,ALB,Albumin,4.5,g/dL,3.4,4.7,2,BASELINE,1,NORMAL
ABC001,ABC001-401-01,273,BUN,Blood Urea Nitrogen (BUN),15.9,mg/dL,8,20,2,BASELINE,1,NORMAL
ABC001,ABC001-401-01,273,CA,Calcium,10.08,mg/dL,8.5,10.5,2,BASELINE,1,NORMAL
ABC001,ABC001-401-01,273,GLUC,Glucose,83.3,mg/dL,60,115,2,BASELINE,1,NORMAL
ABC001,ABC001-401-01,274,ALB,Albumin,3.7,g/dL,3.4,4.7,3,VISIT 2,13,NORMAL
ABC001,ABC001-401-01,274,BUN,Blood Urea Nitrogen (BUN),7.5,mg/dL,8,20,3,VISIT 2,13,LOW
ABC001,ABC001-401-01,274,CA,Calcium,9.72,mg/dL,8.5,10.5,3,VISIT 2,13,NORMAL
ABC001,ABC001-401-01,274,GLUC,Glucose,69.9,mg/dL,60,115,3,VISIT 2,13,NORMAL
ABC001,ABC001-401-01,275,ALB,Albumin,4.4,g/dL,3.4,4.7,4,VISIT 3,27,NORMAL
ABC001,ABC001-401-01,275,BUN,Blood Urea Nitrogen (BUN),17.6,mg/dL,8,20,4,VISIT 3,27,NORMAL
ABC001,ABC001-401-01,275,CA,Calcium,8.27,mg/dL,8.5,10.5,4,VISIT 3,27,LOW
ABC001,ABC001-401-01,275,GLUC,Glucose,92.1,mg/dL,60,115,4,VISIT 3,27,NORMAL
ABC001,ABC001-401-01,276,ALB,Albumin,3.3,g/dL,3.4,4.7,5,VISIT 4,39,LOW
ABC001,ABC001-401-01,276,BUN,Blood Urea Nitrogen (BUN),15.5,mg/dL,8,20,5,VISIT 4,39,NORMAL
ABC001,ABC001-401-01,276,CA,Calcium,9.62,mg/dL,8.5,10.5,5,VISIT 4,39,NORMAL
ABC001,ABC001-401-01,276,GLUC,Glucose,66.4,mg/dL,60,115,5,VISIT 4,39,NORMAL
ABC001,ABC001-401-02,277,ALB,Albumin,3.6,g/dL,3.4,4.7,1,SCREENING,-9,NORMAL
ABC001,ABC001-401-02,277,BUN,Blood Urea Nitrogen (BUN),13.2,mg/dL,8,20,1,SCREENING,-9,NORMAL
ABC001,ABC001-401-02,277,CA,Calcium,9.38,mg/dL,8.5,10.5,1,SCREENING,-9,NORMAL
ABC001,ABC001-401-02,277,GLUC,Glucose,88.8,mg/dL,60,115,1,SCREENING,-9,NORMAL
ABC001,ABC001-401-02,278,ALB,Albumin,4.4,g/dL,3.4,4.7,2,BASELINE,1,NORMAL
ABC001,ABC001-401-02,278,BUN,Blood Urea Nitrogen (BUN),16.7,mg/dL,8,20,2,BASELINE,1,NORMAL
ABC001,ABC001-401-02,278,CA,Calcium,9.47,mg/dL,8.5,10.5,2,BASELINE,1,NORMAL
ABC001,ABC001-401-02,278,GLUC,Glucose,56.6,mg/dL,60,115,2,BASELINE,1,LOW
ABC001,ABC001-401-02,279,ALB,Albumin,3.4,g/dL,3.4,4.7,3,VISIT 2,15,NORMAL
ABC001,ABC001-401-02,279,BUN,Blood Urea Nitrogen (BUN),13.4,mg/dL,8,20,3,VISIT 2,15,NORMAL
ABC001,ABC001-401-02,279,CA,Calcium,8.87,mg/dL,8.5,10.5,3,VISIT 2,15,NORMAL
ABC001,ABC001-401-02,279,GLUC,Glucose,91.1,mg/dL,60,115,3,VISIT 2,15,NORMAL
ABC001,ABC001-401-02,280,ALB,Albumin,4.3,g/dL,3.4,4.7,4,VISIT 3,28,NORMAL
ABC001,ABC001-401-02,280,BUN,Blood Urea Nitrogen (BUN),17.1,mg/dL,8,20,4,VISIT 3,28,NORMAL
ABC001,ABC001-401-02,280,CA,Calcium,8.63,mg/dL,8.5,10.5,4,VISIT 3,28,NORMAL
ABC001,ABC001-401-02,280,GLUC,Glucose,81.9,mg/dL,60,115,4,VISIT 3,28,NORMAL
ABC001,ABC001-401-02,281,ALB,Albumin,4.2,g/dL,3.4,4.7,5,VISIT 4,41,NORMAL
ABC001,ABC001-401-02,281,BUN,Blood Urea Nitrogen (BUN),11.9,mg/dL,8,20,5,VISIT 4,41,NORMAL
ABC001,ABC001-401-02,281,CA,Calcium,9.44,mg/dL,8.5,10.5,5,VISIT 4,41,NORMAL
ABC001,ABC001-401-02,281,GLUC,Glucose,66.8,mg/dL,60,115,5,VISIT 4,41,NORMAL
ABC001,ABC001-401-02,282,ALB,Albumin,4.0,g/dL,3.4,4.7,6,VISIT 5,55,NORMAL
ABC001,ABC001-401-02,282,BUN,Blood Urea Nitrogen (BUN),22.3,mg/dL,8,20,6,VISIT 5,55,HIGH
ABC001,ABC001-401-02,282,CA,Calcium,9.94,mg/dL,8.5,10.5,6,VISIT 5,55,NORMAL
ABC001,ABC001-401-02,282,GLUC,Glucose,95.1,mg/dL,60,115,6,VISIT 5,55,NORMAL
ABC001,ABC001-401-02,283,ALB,Albumin,4.5,g/dL,3.4,4.7,7,VISIT 6,69,NORMAL
ABC001,ABC001-401-02,283,BUN,Blood Urea Nitrogen (BUN),9.8,mg/dL,8,20,7,VISIT 6,69,NORMAL
ABC001,ABC001-401-02,283,CA,Calcium,8.82,mg/dL,8.5,10.5,7,VISIT 6,69,NORMAL
ABC001,ABC001-401-02,283,GLUC,Glucose,89.7,mg/dL,60,115,7,VISIT 6,69,NORMAL
ABC001,ABC001-401-03,284,ALB,Albumin,4.4,g/dL,3.4,4.7,1,SCREENING,-15,NORMAL
ABC001,ABC001-401-03,284,BUN,Blood Urea Nitrogen (BUN),6.1,mg/dL,8,20,1,SCREENING,-15,LOW
ABC001,ABC001-401-03,284,CA,Calcium,9.58,mg/dL,8.5,10.5,1,SCREENING,-15,NORMAL
ABC001,ABC001-401-03,284,GLUC,Glucose,113.7,mg/dL,60,115,1,SCREENING,-15,NORMAL
ABC001,ABC001-401-03,285,ALB,Albumin,4.2,g/dL,3.4,4.7,2,BASELINE,1,NORMAL
ABC001,ABC001-401-03,285,BUN,Blood Urea Nitrogen (BUN),13.5,mg/dL,8,20,2,BASELINE,1,NORMAL
ABC001,ABC001-401-03,285,CA,Calcium,9.87,mg/dL,8.5,10.5,2,BASELINE,1,NORMAL
ABC001,ABC001-401-03,285,GLUC,Glucose,81.1,mg/dL,60,115,2,BASELINE,1,NORMAL
ABC001,ABC001-401-03,286,ALB,Albumin,4.5,g/dL,3.4,4.7,3,VISIT 2,16,NORMAL
ABC001,ABC001-401-03,286,BUN,Blood Urea Nitrogen (BUN),9.9,mg/dL,8,20,3,VISIT 2,16,NORMAL
ABC001,ABC001-401-03,286,CA,Calcium,9.74,mg/dL,8.5,10.5,3,VISIT 2,16,NORMAL
ABC001,ABC001-401-03,286,GLUC,Glucose,79.1,mg/dL,60,115,3,VISIT 2,16,NORMAL
ABC001,ABC001-401-03,287,ALB,Albumin,3.6,g/dL,3.4,4.7,4,VISIT 3,30,NORMAL
ABC001,ABC001-401-03,287,BUN,Blood Urea Nitrogen (BUN),12.1,mg/dL,8,20,4,VISIT 3,30,NORMAL
ABC001,ABC001-401-03,287,CA,Calcium,10.43,mg/dL,8.5,10.5,4,VISIT 3,30,NORMAL
ABC001,ABC001-401-03,287,GLUC,Glucose,81.7,mg/dL,60,115,4,VISIT 3,30,NORMAL
ABC001,ABC001-401-03,288,ALB,Albumin,4.6,g/dL,3.4,4.7,5,VISIT 4,45,NORMAL
ABC001,ABC001-401-03,288,BUN,Blood Urea Nitrogen (BUN),18.7,mg/dL,8,20,5,VISIT 4,45,NORMAL
ABC001,ABC001-401-03,288,CA,Calcium,9.27,mg/dL,8.5,10.5,5,VISIT 4,45,NORMAL
ABC001,ABC001-401-03,288,GLUC,Glucose,98.8,mg/dL,60,115,5,VISIT 4,45,NORMAL
ABC001,ABC001-401-03,289,ALB,Albumin,3.6,g/dL,3.4,4.7,6,VISIT 5,58,NORMAL
ABC001,ABC001-401-03,289,BUN,Blood Urea Nitrogen (BUN),13.5,mg/dL,8,20,6,VISIT 5,58,NORMAL
ABC001,ABC001-401-03,289,CA,Calcium,9.7,mg/dL,8.5,10.5,6,VISIT 5,58,NORMAL
ABC001,ABC001-401-03,289,GLUC,Glucose,62.7,mg/dL,60,115,6,VISIT 5,58,NORMAL
ABC001,ABC001-401-03,290,ALB,Albumin,4.2,g/dL,3.4,4.7,7,VISIT 6,72,NORMAL
ABC001,ABC001-401-03,290,BUN,Blood Urea Nitrogen (BUN),14.1,mg/dL,8,20,7,VISIT 6,72,NORMAL
ABC001,ABC001-401-03,290,CA,Calcium,10.01,mg/dL,8.5,10.5,7,VISIT 6,72,NORMAL
ABC001,ABC001-401-03,290,GLUC,Glucose,78.1,mg/dL,60,115,7,VISIT 6,72,NORMAL
ABC001,ABC001-401-04,291,ALB,Albumin,3.6,g/dL,3.4,4.7,1,SCREENING,-12,NORMAL
ABC001,ABC001-401-04,291,BUN,Blood Urea Nitrogen (BUN),13.1,mg/dL,8,20,1,SCREENING,-12,NORMAL
ABC001,ABC001-401-04,291,CA,Calcium,9.24,mg/dL,8.5,10.5,1,SCREENING,-12,NORMAL
ABC001,ABC001-401-04,291,GLUC,Glucose,73.3,mg/dL,60,115,1,SCREENING,-12,NORMAL
ABC001,ABC001-401-04,292,ALB,Albumin,3.3,g/dL,3.4,4.7,2,BASELINE,1,LOW
ABC001,ABC001-401-04,292,BUN,Blood Urea Nitrogen (BUN),13.3,mg/dL,8,20,2,BASELINE,1,NORMAL
ABC001,ABC001-401-04,292,CA,Calcium,10.01,mg/dL,8.5,10.5,2,BASELINE,1,NORMAL
ABC001,ABC001-401-04,292,GLUC,Glucose,71.6,mg/dL,60,115,2,BASELINE,1,NORMAL
ABC001,ABC001-401-04,293,ALB,Albumin,3.8,g/dL,3.4,4.7,3,VISIT 2,13,NORMAL
ABC001,ABC001-401-04,293,BUN,Blood Urea Nitrogen (BUN),23.8,mg/dL,8,20,3,VISIT 2,13,HIGH
ABC001,ABC001-401-04,293,CA,Calcium,9.22,mg/dL,8.5,10.5,3,VISIT 2,13,NORMAL
ABC001,ABC001-401-04,293,GLUC,Glucose,103.0,mg/dL,60,115,3,VISIT 2,13,NORMAL
ABC001,ABC001-401-04,294,ALB,Albumin,4.1,g/dL,3.4,4.7,4,VISIT 3,27,NORMAL
ABC001,ABC001-401-04,294,BUN,Blood Urea Nitrogen (BUN),8.9,mg/dL,8,20,4,VISIT 3,27,NORMAL
ABC001,ABC001-401-04,294,CA,Calcium,8.77,mg/dL,8.5,10.5,4,VISIT 3,27,NORMAL
ABC001,ABC001-401-04,294,GLUC,Glucose,69.5,mg/dL,60,115,4,VISIT 3,27,NORMAL
ABC001,ABC001-401-04,295,ALB,Albumin,3.4,g/dL,3.4,4.7,5,VISIT 4,41,NORMAL
ABC001,ABC001-401-04,295,BUN,Blood Urea Nitrogen (BUN),13.5,mg/dL,8,20,5,VISIT 4,41,NORMAL
ABC001,ABC001-401-04,295,CA,Calcium,9.74,mg/dL,8.5,10.5,5,VISIT 4,41,NORMAL
ABC001,ABC001-401-04,295,GLUC,Glucose,80.2,mg/dL,60,115,5,VISIT 4,41,NORMAL
ABC001,ABC001-401-04,296,ALB,Albumin,4.1,g/dL,3.4,4.7,6,VISIT 5,54,NORMAL
ABC001,ABC001-401-04,296,BUN,Blood Urea Nitrogen (BUN),12.8,mg/dL,8,20,6,VISIT 5,54,NORMAL
ABC001,ABC001-401-04,296,CA,Calcium,9.53,mg/dL,8.5,10.5,6,VISIT 5,54,NORMAL
ABC001,ABC001-401-04,296,GLUC,Glucose,67.8,mg/dL,60,115,6,VISIT 5,54,NORMAL
ABC001,ABC001-401-04,297,ALB,Albumin,4.4,g/dL,3.4,4.7,7,VISIT 6,66,NORMAL
ABC001,ABC001-401-04,297,BUN,Blood Urea Nitrogen (BUN),12.2,mg/dL,8,20,7,VISIT 6,66,NORMAL
ABC001,ABC001-401-04,297,CA,Calcium,9.97,mg/dL,8.5,10.5,7,VISIT 6,66,NORMAL
ABC001,ABC001-401-04,297,GLUC,Glucose,96.1,mg/dL,60,115,7,VISIT 6,66,NORMAL
ABC001,ABC001-401-05,298,ALB,Albumin,4.0,g/dL,3.4,4.7,1,SCREENING,,NORMAL
ABC001,ABC001-401-05,298,BUN,Blood Urea Nitrogen (BUN),12.7,mg/dL,8,20,1,SCREENING,,NORMAL
ABC001,ABC001-401-05,298,CA,Calcium,9.23,mg/dL,8.5,10.5,1,SCREENING,,NORMAL
ABC001,ABC001-401-05,298,GLUC,Glucose,79.0,mg/dL,60,115,1,SCREENING,,NORMAL
ABC001,ABC001-402-01,299,ALB,Albumin,3.5,g/dL,3.4,4.7,1,SCREENING,-14,NORMAL
ABC001,ABC001-402-01,299,BUN,Blood Urea Nitrogen (BUN),12.4,mg/dL,8,20,1,SCREENING,-14,NORMAL
ABC001,ABC001-402-01,299,CA,Calcium,9.61,mg/dL,8.5,10.5,1,SCREENING,-14,NORMAL
ABC001,ABC001-402-01,299,GLUC,Glucose,117.3,mg/dL,60,115,1,SCREENING,-14,HIGH
ABC001,ABC001-402-01,300,ALB,Albumin,4.0,g/dL,3.4,4.7,2,BASELINE,1,NORMAL
ABC001,ABC001-402-01,300,BUN,Blood Urea Nitrogen (BUN),15.8,mg/dL,8,20,2,BASELINE,1,NORMAL
ABC001,ABC001-402-01,300,CA,Calcium,9.75,mg/dL,8.5,10.5,2,BASELINE,1,NORMAL
ABC001,ABC001-402-01,300,GLUC,Glucose,61.7,mg/dL,60,115,2,BASELINE,1,NORMAL
ABC001,ABC001-402-01,301,ALB,Albumin,3.5,g/dL,3.4,4.7,3,VISIT 2,15,NORMAL
ABC001,ABC001-402-01,301,BUN,Blood Urea Nitrogen (BUN),24.7,mg/dL,8,20,3,VISIT 2,15,HIGH
ABC001,ABC001-402-01,301,CA,Calcium,9.7,mg/dL,8.5,10.5,3,VISIT 2,15,NORMAL
ABC001,ABC001-402-01,301,GLUC,Glucose,93.8,mg/dL,60,115,3,VISIT 2,15,NORMAL
ABC001,ABC001-402-02,302,ALB,Albumin,4.0,g/dL,3.4,4.7,1,SCREENING,-15,NORMAL
ABC001,ABC001-402-02,302,BUN,Blood Urea Nitrogen (BUN),19.8,mg/dL,8,20,1,SCREENING,-15,NORMAL
ABC001,ABC001-402-02,302,CA,Calcium,9.51,mg/dL,8.5,10.5,1,SCREENING,-15,NORMAL
ABC001,ABC001-402-02,302,GLUC,Glucose,94.8,mg/dL,60,115,1,SCREENING,-15,NORMAL
ABC001,ABC001-402-02,303,ALB,Albumin,3.8,g/dL,3.4,4.7,2,BASELINE,1,NORMAL
ABC001,ABC001-402-02,303,BUN,Blood Urea Nitrogen (BUN),14.0,mg/dL,8,20,2,BASELINE,1,NORMAL
ABC001,ABC001-402-02,303,CA,Calcium,9.92,mg/dL,8.5,10.5,2,BASELINE,1,NORMAL
ABC001,ABC001-402-02,303,GLUC,Glucose,108.2,mg/dL,60,115,2,BASELINE,1,NORMAL
ABC001,ABC001-402-02,304,ALB,Albumin,3.4,g/dL,3.4,4.7,3,VISIT 2,15,NORMAL
ABC001,ABC001-402-02,304,BUN,Blood Urea Nitrogen (BUN),16.8,mg/dL,8,20,3,VISIT 2,15,NORMAL
ABC001,ABC001-402-02,304,CA,Calcium,9.74,mg/dL,8.5,10.5,3,VISIT 2,15,NORMAL
ABC001,ABC001-402-02,304,GLUC,Glucose,76.7,mg/dL,60,115,3,VISIT 2,15,NORMAL
ABC001,ABC001-402-02,305,ALB,Albumin,4.3,g/dL,3.4,4.7,4,VISIT 3,29,NORMAL
ABC001,ABC001-402-02,305,BUN,Blood Urea Nitrogen (BUN),14.2,mg/dL,8,20,4,VISIT 3,29,NORMAL
ABC001,ABC001-402-02,305,CA,Calcium,9.31,mg/dL,8.5,10.5,4,VISIT 3,29,NORMAL
ABC001,ABC001-402-02,305,GLUC,Glucose,100.3,mg/dL,60,115,4,VISIT 3,29,NORMAL
ABC001,ABC001-402-02,306,ALB,Albumin,4.1,g/dL,3.4,4.7,5,VISIT 4,42,NORMAL
ABC001,ABC001-402-02,306,BUN,Blood Urea Nitrogen (BUN),12.6,mg/dL,8,20,5,VISIT 4,42,NORMAL
ABC001,ABC001-402-02,306,CA,Calcium,10.01,mg/dL,8.5,10.5,5,VISIT 4,42,NORMAL
ABC001,ABC001-402-02,306,GLUC,Glucose,93.4,mg/dL,60,115,5,VISIT 4,42,NORMAL
ABC001,ABC001-402-02,307,ALB,Albumin,4.1,g/dL,3.4,4.7,6,VISIT 5,56,NORMAL
ABC001,ABC001-402-02,307,BUN,Blood Urea Nitrogen (BUN),12.7,mg/dL,8,20,6,VISIT 5,56,NORMAL
ABC001,ABC001-402-02,307,CA,Calcium,8.83,mg/dL,8.5,10.5,6,VISIT 5,56,NORMAL
ABC001,ABC001-402-02,307,GLUC,Glucose,94.5,mg/dL,60,115,6,VISIT 5,56,NORMAL
ABC001,ABC001-402-02,308,ALB,Albumin,3.6,g/dL,3.4,4.7,7,VISIT 6,70,NORMAL
ABC001,ABC001-402-02,308,BUN,Blood Urea Nitrogen (BUN),13.0,mg/dL,8,20,7,VISIT 6,70,NORMAL
ABC001,ABC001-402-02,308,CA,Calcium,9.18,mg/dL,8.5,10.5,7,VISIT 6,70,NORMAL
ABC001,ABC001-402-02,308,GLUC,Glucose,102.6,mg/dL,60,115,7,VISIT 6,70,NORMAL
ABC001,ABC001-402-03,309,ALB,Albumin,3.9,g/dL,3.4,4.7,1,SCREENING,-14,NORMAL
ABC001,ABC001-402-03,309,BUN,Blood Urea Nitrogen (BUN),11.6,mg/dL,8,20,1,SCREENING,-14,NORMAL
ABC001,ABC001-402-03,309,CA,Calcium,8.98,mg/dL,8.5,10.5,1,SCREENING,-14,NORMAL
ABC001,ABC001-402-03,309,GLUC,Glucose,81.9,mg/dL,60,115,1,SCREENING,-14,NORMAL
ABC001,ABC001-402-03,310,ALB,Albumin,4.3,g/dL,3.4,4.7,2,BASELINE,1,NORMAL
ABC001,ABC001-402-03,310,BUN,Blood Urea Nitrogen (BUN),15.3,mg/dL,8,20,2,BASELINE,1,NORMAL
ABC001,ABC001-402-03,310,CA,Calcium,9.99,mg/dL,8.5,10.5,2,BASELINE,1,NORMAL
ABC001,ABC001-402-03,310,GLUC,Glucose,77.0,mg/dL,60,115,2,BASELINE,1,NORMAL
ABC001,ABC001-402-03,311,ALB,Albumin,4.4,g/dL,3.4,4.7,3,VISIT 2,16,NORMAL
ABC001,ABC001-402-03,311,BUN,Blood Urea Nitrogen (BUN),11.0,mg/dL,8,20,3,VISIT 2,16,NORMAL
ABC001,ABC001-402-03,311,CA,Calcium,10.02,mg/dL,8.5,10.5,3,VISIT 2,16,NORMAL
ABC001,ABC001-402-03,311,GLUC,Glucose,79.7,mg/dL,60,115,3,VISIT 2,16,NORMAL
ABC001,ABC001-402-03,312,ALB,Albumin,4.7,g/dL,3.4,4.7,4,VISIT 3,29,NORMAL
ABC001,ABC001-402-03,312,BUN,Blood Urea Nitrogen (BUN),11.3,mg/dL,8,20,4,VISIT 3,29,NORMAL
ABC001,ABC001-402-03,312,CA,Calcium,9.55,mg/dL,8.5,10.5,4,VISIT 3,29,NORMAL
ABC001,ABC001-402-03,312,GLUC,Glucose,98.8,mg/dL,60,115,4,VISIT 3,29,NORMAL
ABC001,ABC001-402-03,313,ALB,Albumin,3.9,g/dL,3.4,4.7,5,VISIT 4,43,NORMAL
ABC001,ABC001-402-03,313,BUN,Blood Urea Nitrogen (BUN),12.9,mg/dL,8,20,5,VISIT 4,43,NORMAL
ABC001,ABC001-402-03,313,CA,Calcium,9.84,mg/dL,8.5,10.5,5,VISIT 4,43,NORMAL
ABC001,ABC001-402-03,313,GLUC,Glucose,71.4,mg/dL,60,115,5,VISIT 4,43,NORMAL
ABC001,ABC001-402-03,314,ALB,Albumin,3.9,g/dL,3.4,4.7,6,VISIT 5,57,NORMAL
ABC001,ABC001-402-03,314,BUN,Blood Urea Nitrogen (BUN),7.1,mg/dL,8,20,6,VISIT 5,57,LOW
ABC001,ABC001-402-03,314,CA,Calcium,8.66,mg/dL,8.5,10.5,6,VISIT 5,57,NORMAL
ABC001,ABC001-402-03,314,GLUC,Glucose,106.5,mg/dL,60,115,6,VISIT 5,57,NORMAL
ABC001,ABC001-402-03,315,ALB,Albumin,4.2,g/dL,3.4,4.7,7,VISIT 6,70,NORMAL
ABC001,ABC001-402-03,315,BUN,Blood Urea Nitrogen (BUN),11.3,mg/dL,8,20,7,VISIT 6,70,NORMAL
ABC001,ABC001-402-03,315,CA,Calcium,9.13,mg/dL,8.5,10.5,7,VISIT 6,70,NORMAL
ABC001,ABC001-402-03,315,GLUC,Glucose,96.1,mg/dL,60,115,7,VISIT 6,70,NORMAL
ABC001,ABC001-402-04,316,ALB,Albumin,4.7,g/dL,3.4,4.7,1,SCREENING,-13,NORMAL
ABC001,ABC001-402-04,316,BUN,Blood Urea Nitrogen (BUN),15.7,mg/dL,8,20,1,SCREENING,-13,NORMAL
ABC001,ABC001-402-04,316,CA,Calcium,10.29,mg/dL,8.5,10.5,1,SCREENING,-13,NORMAL
ABC001,ABC001-402-04,316,GLUC,Glucose,89.8,mg/dL,60,115,1,SCREENING,-13,NORMAL
ABC001,ABC001-402-04,317,ALB,Albumin,4.0,g/dL,3.4,4.7,2,BASELINE,1,NORMAL
ABC001,ABC001-402-04,317,BUN,Blood Urea Nitrogen (BUN),14.4,mg/dL,8,20,2,BASELINE,1,NORMAL
ABC001,ABC001-402-04,317,CA,Calcium,9.76,mg/dL,8.5,10.5,2,BASELINE,1,NORMAL
ABC001,ABC001-402-04,317,GLUC,Glucose,61.0,mg/dL,60,115,2,BASELINE,1,NORMAL
ABC001,ABC001-402-04,318,ALB,Albumin,4.2,g/dL,3.4,4.7,3,VISIT 2,14,NORMAL
ABC001,ABC001-402-04,318,BUN,Blood Urea Nitrogen (BUN),13.9,mg/dL,8,20,3,VISIT 2,14,NORMAL
ABC001,ABC001-402-04,318,CA,Calcium,10.27,mg/dL,8.5,10.5,3,VISIT 2,14,NORMAL
ABC001,ABC001-402-04,318,GLUC,Glucose,87.8,mg/dL,60,115,3,VISIT 2,14,NORMAL
ABC001,ABC001-402-04,319,ALB,Albumin,4.1,g/dL,3.4,4.7,4,VISIT 3,28,NORMAL
ABC001,ABC001-402-04,319,BUN,Blood Urea Nitrogen (BUN),7.4,mg/dL,8,20,4,VISIT 3,28,LOW
ABC001,ABC001-402-04,319,CA,Calcium,10.05,mg/dL,8.5,10.5,4,VISIT 3,28,NORMAL
ABC001,ABC001-402-04,319,GLUC,Glucose,94.9,mg/dL,60,115,4,VISIT 3,28,NORMAL
ABC001,ABC001-402-04,320,ALB,Albumin,4.1,g/dL,3.4,4.7,5,VISIT 4,42,NORMAL
ABC001,ABC001-402-04,320,BUN,Blood Urea Nitrogen (BUN),16.9,mg/dL,8,20,5,VISIT 4,42,NORMAL
ABC001,ABC001-402-04,320,CA,Calcium,9.55,mg/dL,8.5,10.5,5,VISIT 4,42,NORMAL
ABC001,ABC001-402-04,320,GLUC,Glucose,81.4,mg/dL,60,115,5,VISIT 4,42,NORMAL
ABC001,ABC001-402-04,321,ALB,Albumin,4.2,g/dL,3.4,4.7,6,VISIT 5,56,NORMAL
ABC001,ABC001-402-04,321,BUN,Blood Urea Nitrogen (BUN),12.0,mg/dL,8,20,6,VISIT 5,56,NORMAL
ABC001,ABC001-402-04,321,CA,Calcium,10.16,mg/dL,8.5,10.5,6,VISIT 5,56,NORMAL
ABC001,ABC001-402-04,321,GLUC,Glucose,99.9,mg/dL,60,115,6,VISIT 5,56,NORMAL
ABC001,ABC001-402-04,322,ALB,Albumin,3.9,g/dL,3.4,4.7,7,VISIT 6,70,NORMAL
ABC001,ABC001-402-04,322,BUN,Blood Urea Nitrogen (BUN),12.5,mg/dL,8,20,7,VISIT 6,70,NORMAL
ABC001,ABC001-402-04,322,CA,Calcium,8.74,mg/dL,8.5,10.5,7,VISIT 6,70,NORMAL
ABC001,ABC001-402-04,322,GLUC,Glucose,79.5,mg/dL,60,115,7,VISIT 6,70,NORMAL
ABC001,ABC001-402-05,323,ALB,Albumin,3.9,g/dL,3.4,4.7,1,SCREENING,-12,NORMAL
ABC001,ABC001-402-05,323,BUN,Blood Urea Nitrogen (BUN),11.2,mg/dL,8,20,1,SCREENING,-12,NORMAL
ABC001,ABC001-402-05,323,CA,Calcium,9.52,mg/dL,8.5,10.5,1,SCREENING,-12,NORMAL
ABC001,ABC001-402-05,323,GLUC,Glucose,80.0,mg/dL,60,115,1,SCREENING,-12,NORMAL
ABC001,ABC001-402-05,324,ALB,Albumin,4.4,g/dL,3.4,4.7,2,BASELINE,1,NORMAL
ABC001,ABC001-402-05,324,BUN,Blood Urea Nitrogen (BUN),17.3,mg/dL,8,20,2,BASELINE,1,NORMAL
ABC001,ABC001-402-05,324,CA,Calcium,9.04,mg/dL,8.5,10.5,2,BASELINE,1,NORMAL
ABC001,ABC001-402-05,324,GLUC,Glucose,77.7,mg/dL,60,115,2,BASELINE,1,NORMAL
ABC001,ABC001-402-05,325,ALB,Albumin,3.7,g/dL,3.4,4.7,3,VISIT 2,14,NORMAL
ABC001,ABC001-402-05,325,BUN,Blood Urea Nitrogen (BUN),10.4,mg/dL,8,20,3,VISIT 2,14,NORMAL
ABC001,ABC001-402-05,325,CA,Calcium,9.95,mg/dL,8.5,10.5,3,VISIT 2,14,NORMAL
ABC001,ABC001-402-05,325,GLUC,Glucose,78.4,mg/dL,60,115,3,VISIT 2,14,NORMAL
ABC001,ABC001-402-05,326,ALB,Albumin,3.4,g/dL,3.4,4.7,4,VISIT 3,27,NORMAL
ABC001,ABC001-402-05,326,BUN,Blood Urea Nitrogen (BUN),13.1,mg/dL,8,20,4,VISIT 3,27,NORMAL
ABC001,ABC001-402-05,326,CA,Calcium,10.04,mg/dL,8.5,10.5,4,VISIT 3,27,NORMAL
ABC001,ABC001-402-05,326,GLUC,Glucose,92.6,mg/dL,60,115,4,VISIT 3,27,NORMAL
ABC001,ABC001-402-05,327,ALB,Albumin,3.9,g/dL,3.4,4.7,5,VISIT 4,41,NORMAL
ABC001,ABC001-402-05,327,BUN,Blood Urea Nitrogen (BUN),12.5,mg/dL,8,20,5,VISIT 4,41,NORMAL
ABC001,ABC001-402-05,327,CA,Calcium,9.78,mg/dL,8.5,10.5,5,VISIT 4,41,NORMAL
ABC001,ABC001-402-05,327,GLUC,Glucose,96.9,mg/dL,60,115,5,VISIT 4,41,NORMAL
ABC001,ABC001-402-05,328,ALB,Albumin,3.9,g/dL,3.4,4.7,6,VISIT 5,54,NORMAL
ABC001,ABC001-402-05,328,BUN,Blood Urea Nitrogen (BUN),13.9,mg/dL,8,20,6,VISIT 5,54,NORMAL
ABC001,ABC001-402-05,328,CA,Calcium,8.8,mg/dL,8.5,10.5,6,VISIT 5,54,NORMAL
ABC001,ABC001-402-05,328,GLUC,Glucose,86.2,mg/dL,60,115,6,VISIT 5,54,NORMAL
ABC001,ABC001-402-05,329,ALB,Albumin,3.8,g/dL,3.4,4.7,7,VISIT 6,66,NORMAL
ABC001,ABC001-402-05,329,BUN,Blood Urea Nitrogen (BUN),12.2,mg/dL,8,20,7,VISIT 6,66,NORMAL
ABC001,ABC001-402-05,329,CA,Calcium,8.62,mg/dL,8.5,10.5,7,VISIT 6,66,NORMAL
ABC001,ABC001-402-05,329,GLUC,Glucose,112.5,mg/dL,60,115,7,VISIT 6,66,NORMAL
ABC001,ABC001-402-06,330,ALB,Albumin,4.1,g/dL,3.4,4.7,1,SCREENING,-12,NORMAL
ABC001,ABC001-402-06,330,BUN,Blood Urea Nitrogen (BUN),14.6,mg/dL,8,20,1,SCREENING,-12,NORMAL
ABC001,ABC001-402-06,330,CA,Calcium,9.24,mg/dL,8.5,10.5,1,SCREENING,-12,NORMAL
ABC001,ABC001-402-06,330,GLUC,Glucose,94.9,mg/dL,60,115,1,SCREENING,-12,NORMAL
ABC001,ABC001-402-06,331,ALB,Albumin,4.7,g/dL,3.4,4.7,2,BASELINE,1,NORMAL
ABC001,ABC001-402-06,331,BUN,Blood Urea Nitrogen (BUN),16.1,mg/dL,8,20,2,BASELINE,1,NORMAL
ABC001,ABC001-402-06,331,CA,Calcium,9.4,mg/dL,8.5,10.5,2,BASELINE,1,NORMAL
ABC001,ABC001-402-06,331,GLUC,Glucose,72.2,mg/dL,60,115,2,BASELINE,1,NORMAL
ABC001,ABC001-402-06,332,ALB,Albumin,4.1,g/dL,3.4,4.7,3,VISIT 2,15,NORMAL
ABC001,ABC001-402-06,332,BUN,Blood Urea Nitrogen (BUN),13.2,mg/dL,8,20,3,VISIT 2,15,NORMAL
ABC001,ABC001-402-06,332,CA,Calcium,10.64,mg/dL,8.5,10.5,3,VISIT 2,15,HIGH
ABC001,ABC001-402-06,332,GLUC,Glucose,101.7,mg/dL,60,115,3,VISIT 2,15,NORMAL
ABC001,ABC001-402-06,333,ALB,Albumin,4.6,g/dL,3.4,4.7,4,VISIT 3,28,NORMAL
ABC001,ABC001-402-06,333,BUN,Blood Urea Nitrogen (BUN),12.8,mg/dL,8,20,4,VISIT 3,28,NORMAL
ABC001,ABC001-402-06,333,CA,Calcium,8.95,mg/dL,8.5,10.5,4,VISIT 3,28,NORMAL
ABC001,ABC001-402-06,333,GLUC,Glucose,84.5,mg/dL,60,115,4,VISIT 3,28,NORMAL
ABC001,ABC001-402-06,334,ALB,Albumin,3.8,g/dL,3.4,4.7,5,VISIT 4,42,NORMAL
ABC001,ABC001-402-06,334,BUN,Blood Urea Nitrogen (BUN),13.5,mg/dL,8,20,5,VISIT 4,42,NORMAL
ABC001,ABC001-402-06,334,CA,Calcium,9.16,mg/dL,8.5,10.5,5,VISIT 4,42,NORMAL
ABC001,ABC001-402-06,334,GLUC,Glucose,77.7,mg/dL,60,115,5,VISIT 4,42,NORMAL
ABC001,ABC001-402-06,335,ALB,Albumin,4.0,g/dL,3.4,4.7,6,VISIT 5,53,NORMAL
ABC001,ABC001-402-06,335,BUN,Blood Urea Nitrogen (BUN),13.4,mg/dL,8,20,6,VISIT 5,53,NORMAL
ABC001,ABC001-402-06,335,CA,Calcium,9.39,mg/dL,8.5,10.5,6,VISIT 5,53,NORMAL
ABC001,ABC001-402-06,335,GLUC,Glucose,89.8,mg/dL,60,115,6,VISIT 5,53,NORMAL
ABC001,ABC001-402-06,336,ALB,Albumin,3.9,g/dL,3.4,4.7,7,VISIT 6,67,NORMAL
ABC001,ABC001-402-06,336,BUN,Blood Urea Nitrogen (BUN),17.6,mg/dL,8,20,7,VISIT 6,67,NORMAL
ABC001,ABC001-402-06,336,CA,Calcium,9.21,mg/dL,8.5,10.5,7,VISIT 6,67,NORMAL
ABC001,ABC001-402-06,336,GLUC,Glucose,87.1,mg/dL,60,115,7,VISIT 6,67,NORMAL
ABC001,ABC001-403-01,337,ALB,Albumin,4.2,g/dL,3.4,4.7,1,SCREENING,-13,NORMAL
ABC001,ABC001-403-01,337,BUN,Blood Urea Nitrogen (BUN),15.7,mg/dL,8,20,1,SCREENING,-13,NORMAL
ABC001,ABC001-403-01,337,CA,Calcium,8.8,mg/dL,8.5,10.5,1,SCREENING,-13,NORMAL
ABC001,ABC001-403-01,337,GLUC,Glucose,95.3,mg/dL,60,115,1,SCREENING,-13,NORMAL
ABC001,ABC001-403-01,338,ALB,Albumin,3.9,g/dL,3.4,4.7,2,BASELINE,1,NORMAL
ABC001,ABC001-403-01,338,BUN,Blood Urea Nitrogen (BUN),12.4,mg/dL,8,20,2,BASELINE,1,NORMAL
ABC001,ABC001-403-01,338,CA,Calcium,9.8,mg/dL,8.5,10.5,2,BASELINE,1,NORMAL
ABC001,ABC001-403-01,338,GLUC,Glucose,117.3,mg/dL,60,115,2,BASELINE,1,HIGH
ABC001,ABC001-403-02,339,ALB,Albumin,3.6,g/dL,3.4,4.7,1,SCREENING,-14,NORMAL
ABC001,ABC001-403-02,339,BUN,Blood Urea Nitrogen (BUN),14.0,mg/dL,8,20,1,SCREENING,-14,NORMAL
ABC001,ABC001-403-02,339,CA,Calcium,9.3,mg/dL,8.5,10.5,1,SCREENING,-14,NORMAL
ABC001,ABC001-403-02,339,GLUC,Glucose,86.3,mg/dL,60,115,1,SCREENING,-14,NORMAL
ABC001,ABC001-403-02,340,ALB,Albumin,3.7,g/dL,3.4,4.7,2,BASELINE,1,NORMAL
ABC001,ABC001-403-02,340,BUN,Blood Urea Nitrogen (BUN),13.7,mg/dL,8,20,2,BASELINE,1,NORMAL
ABC001,ABC001-403-02,340,CA,Calcium,9.22,mg/dL,8.5,10.5,2,BASELINE,1,NORMAL
ABC001,ABC001-403-02,340,GLUC,Glucose,97.3,mg/dL,60,115,2,BASELINE,1,NORMAL
ABC001,ABC001-403-02,341,ALB,Albumin,4.2,g/dL,3.4,4.7,3,VISIT 2,15,NORMAL
ABC001,ABC001-403-02,341,BUN,Blood Urea Nitrogen (BUN),11.5,mg/dL,8,20,3,VISIT 2,15,NORMAL
ABC001,ABC001-403-02,341,CA,Calcium,8.69,mg/dL,8.5,10.5,3,VISIT 2,15,NORMAL
ABC001,ABC001-403-02,341,GLUC,Glucose,72.8,mg/dL,60,115,3,VISIT 2,15,NORMAL
ABC001,ABC001-403-02,342,ALB,Albumin,4.2,g/dL,3.4,4.7,4,VISIT 3,29,NORMAL
ABC001,ABC001-403-02,342,BUN,Blood Urea Nitrogen (BUN),16.6,mg/dL,8,20,4,VISIT 3,29,NORMAL
ABC001,ABC001-403-02,342,CA,Calcium,9.77,mg/dL,8.5,10.5,4,VISIT 3,29,NORMAL
ABC001,ABC001-403-02,342,GLUC,Glucose,95.2,mg/dL,60,115,4,VISIT 3,29,NORMAL
ABC001,ABC001-403-02,343,ALB,Albumin,4.4,g/dL,3.4,4.7,5,VISIT 4,44,NORMAL
ABC001,ABC001-403-02,343,BUN,Blood Urea Nitrogen (BUN),16.4,mg/dL,8,20,5,VISIT 4,44,NORMAL
ABC001,ABC001-403-02,343,CA,Calcium,10.26,mg/dL,8.5,10.5,5,VISIT 4,44,NORMAL
ABC001,ABC001-403-02,343,GLUC,Glucose,76.4,mg/dL,60,115,5,VISIT 4,44,NORMAL
ABC001,ABC001-403-02,344,ALB,Albumin,4.7,g/dL,3.4,4.7,6,VISIT 5,58,NORMAL
ABC001,ABC001-403-02,344,BUN,Blood Urea Nitrogen (BUN),18.8,mg/dL,8,20,6,VISIT 5,58,NORMAL
ABC001,ABC001-403-02,344,CA,Calcium,10.46,mg/dL,8.5,10.5,6,VISIT 5,58,NORMAL
ABC001,ABC001-403-02,344,GLUC,Glucose,91.9,mg/dL,60,115,6,VISIT 5,58,NORMAL
ABC001,ABC001-403-02,345,ALB,Albumin,3.9,g/dL,3.4,4.7,7,VISIT 6,71,NORMAL
ABC001,ABC001-403-02,345,BUN,Blood Urea Nitrogen (BUN),11.1,mg/dL,8,20,7,VISIT 6,71,NORMAL
ABC001,ABC001-403-02,345,CA,Calcium,9.82,mg/dL,8.5,10.5,7,VISIT 6,71,NORMAL
ABC001,ABC001-403-02,345,GLUC,Glucose,106.3,mg/dL,60,115,7,VISIT 6,71,NORMAL
ABC001,ABC001-403-03,346,ALB,Albumin,3.8,g/dL,3.4,4.7,1,SCREENING,-14,NORMAL
ABC001,ABC001-403-03,346,BUN,Blood Urea Nitrogen (BUN),15.6,mg/dL,8,20,1,SCREENING,-14,NORMAL
ABC001,ABC001-403-03,346,CA,Calcium,9.52,mg/dL,8.5,10.5,1,SCREENING,-14,NORMAL
ABC001,ABC001-403-03,346,GLUC,Glucose,88.8,mg/dL,60,115,1,SCREENING,-14,NORMAL
ABC001,ABC001-403-03,347,ALB,Albumin,4.6,g/dL,3.4,4.7,2,BASELINE,1,NORMAL
ABC001,ABC001-403-03,347,BUN,Blood Urea Nitrogen (BUN),15.1,mg/dL,8,20,2,BASELINE,1,NORMAL
ABC001,ABC001-403-03,347,CA,Calcium,10.16,mg/dL,8.5,10.5,2,BASELINE,1,NORMAL
ABC001,ABC001-403-03,347,GLUC,Glucose,87.4,mg/dL,60,115,2,BASELINE,1,NORMAL
ABC001,ABC001-403-03,348,ALB,Albumin,3.8,g/dL,3.4,4.7,3,VISIT 2,15,NORMAL
ABC001,ABC001-403-03,348,BUN,Blood Urea Nitrogen (BUN),9.7,mg/dL,8,20,3,VISIT 2,15,NORMAL
ABC001,ABC001-403-03,348,CA,Calcium,8.78,mg/dL,8.5,10.5,3,VISIT 2,15,NORMAL
ABC001,ABC001-403-03,348,GLUC,Glucose,79.9,mg/dL,60,115,3,VISIT 2,15,NORMAL
ABC001,ABC001-403-03,349,ALB,Albumin,4.4,g/dL,3.4,4.7,4,VISIT 3,28,NORMAL
ABC001,ABC001-403-03,349,BUN,Blood Urea Nitrogen (BUN),22.4,mg/dL,8,20,4,VISIT 3,28,HIGH
ABC001,ABC001-403-03,349,CA,Calcium,10.03,mg/dL,8.5,10.5,4,VISIT 3,28,NORMAL
ABC001,ABC001-403-03,349,GLUC,Glucose,88.5,mg/dL,60,115,4,VISIT 3,28,NORMAL
ABC001,ABC001-403-03,350,ALB,Albumin,4.6,g/dL,3.4,4.7,5,VISIT 4,41,NORMAL
ABC001,ABC001-403-03,350,BUN,Blood Urea Nitrogen (BUN),9.4,mg/dL,8,20,5,VISIT 4,41,NORMAL
ABC001,ABC001-403-03,350,CA,Calcium,8.81,mg/dL,8.5,10.5,5,VISIT 4,41,NORMAL
ABC001,ABC001-403-03,350,GLUC,Glucose,83.8,mg/dL,60,115,5,VISIT 4,41,NORMAL
ABC001,ABC001-403-04,351,ALB,Albumin,3.7,g/dL,3.4,4.7,1,SCREENING,-14,NORMAL
ABC001,ABC001-403-04,351,BUN,Blood Urea Nitrogen (BUN),15.3,mg/dL,8,20,1,SCREENING,-14,NORMAL
ABC001,ABC001-403-04,351,CA,Calcium,9.72,mg/dL,8.5,10.5,1,SCREENING,-14,NORMAL
ABC001,ABC001-403-04,351,GLUC,Glucose,61.6,mg/dL,60,115,1,SCREENING,-14,NORMAL
ABC001,ABC001-403-04,352,ALB,Albumin,4.0,g/dL,3.4,4.7,2,BASELINE,1,NORMAL
ABC001,ABC001-403-04,352,BUN,Blood Urea Nitrogen (BUN),13.2,mg/dL,8,20,2,BASELINE,1,NORMAL
ABC001,ABC001-403-04,352,CA,Calcium,9.6,mg/dL,8.5,10.5,2,BASELINE,1,NORMAL
ABC001,ABC001-403-04,352,GLUC,Glucose,95.7,mg/dL,60,115,2,BASELINE,1,NORMAL
ABC001,ABC001-403-04,353,ALB,Albumin,4.0,g/dL,3.4,4.7,3,VISIT 2,14,NORMAL
ABC001,ABC001-403-04,353,BUN,Blood Urea Nitrogen (BUN),15.4,mg/dL,8,20,3,VISIT 2,14,NORMAL
ABC001,ABC001-403-04,353,CA,Calcium,9.25,mg/dL,8.5,10.5,3,VISIT 2,14,NORMAL
ABC001,ABC001-403-04,353,GLUC,Glucose,70.0,mg/dL,60,115,3,VISIT 2,14,NORMAL
ABC001,ABC001-403-04,354,ALB,Albumin,4.8,g/dL,3.4,4.7,4,VISIT 3,27,HIGH
ABC001,ABC001-403-04,354,BUN,Blood Urea Nitrogen (BUN),16.1,mg/dL,8,20,4,VISIT 3,27,NORMAL
ABC001,ABC001-403-04,354,CA,Calcium,10.04,mg/dL,8.5,10.5,4,VISIT 3,27,NORMAL
ABC001,ABC001-403-04,354,GLUC,Glucose,102.6,mg/dL,60,115,4,VISIT 3,27,NORMAL
ABC001,ABC001-403-04,355,ALB,Albumin,3.9,g/dL,3.4,4.7,5,VISIT 4,40,NORMAL
ABC001,ABC001-403-04,355,BUN,Blood Urea Nitrogen (BUN),14.4,mg/dL,8,20,5,VISIT 4,40,NORMAL
ABC001,ABC001-403-04,355,CA,Calcium,9.66,mg/dL,8.5,10.5,5,VISIT 4,40,NORMAL
ABC001,ABC001-403-04,355,GLUC,Glucose,69.3,mg/dL,60,115,5,VISIT 4,40,NORMAL
ABC001,ABC001-403-04,356,ALB,Albumin,3.9,g/dL,3.4,4.7,6,VISIT 5,53,NORMAL
ABC001,ABC001-403-04,356,BUN,Blood Urea Nitrogen (BUN),11.1,mg/dL,8,20,6,VISIT 5,53,NORMAL
ABC001,ABC001-403-04,356,CA,Calcium,9.13,mg/dL,8.5,10.5,6,VISIT 5,53,NORMAL
ABC001,ABC001-403-04,356,GLUC,Glucose,96.6,mg/dL,60,115,6,VISIT 5,53,NORMAL
ABC001,ABC001-403-04,357,ALB,Albumin,4.1,g/dL,3.4,4.7,7,VISIT 6,67,NORMAL
ABC001,ABC001-403-04,357,BUN,Blood Urea Nitrogen (BUN),15.4,mg/dL,8,20,7,VISIT 6,67,NORMAL
ABC001,ABC001-403-04,357,CA,Calcium,9.55,mg/dL,8.5,10.5,7,VISIT 6,67,NORMAL
ABC001,ABC001-403-04,357,GLUC,Glucose,91.8,mg/dL,60,115,7,VISIT 6,67,NORMAL
ABC001,ABC001-403-05,358,ALB,Albumin,4.0,g/dL,3.4,4.7,1,SCREENING,-14,NORMAL
ABC001,ABC001-403-05,358,BUN,Blood Urea Nitrogen (BUN),13.5,mg/dL,8,20,1,SCREENING,-14,NORMAL
ABC001,ABC001-403-05,358,CA,Calcium,9.19,mg/dL,8.5,10.5,1,SCREENING,-14,NORMAL
ABC001,ABC001-403-05,358,GLUC,Glucose,93.2,mg/dL,60,115,1,SCREENING,-14,NORMAL
ABC001,ABC001-403-05,359,ALB,Albumin,4.0,g/dL,3.4,4.7,2,BASELINE,1,NORMAL
ABC001,ABC001-403-05,359,BUN,Blood Urea Nitrogen (BUN),19.8,mg/dL,8,20,2,BASELINE,1,NORMAL
ABC001,ABC001-403-05,359,CA,Calcium,10.05,mg/dL,8.5,10.5,2,BASELINE,1,NORMAL
ABC001,ABC001-403-05,359,GLUC,Glucose,89.3,mg/dL,60,115,2,BASELINE,1,NORMAL
ABC001,ABC001-403-05,360,ALB,Albumin,4.3,g/dL,3.4,4.7,3,VISIT 2,12,NORMAL
ABC001,ABC001-403-05,360,BUN,Blood Urea Nitrogen (BUN),20.3,mg/dL,8,20,3,VISIT 2,12,HIGH
ABC001,ABC001-403-05,360,CA,Calcium,9.56,mg/dL,8.5,10.5,3,VISIT 2,12,NORMAL
ABC001,ABC001-403-05,360,GLUC,Glucose,88.1,mg/dL,60,115,3,VISIT 2,12,NORMAL
ABC001,ABC001-403-05,361,ALB,Albumin,4.4,g/dL,3.4,4.7,4,VISIT 3,26,NORMAL
ABC001,ABC001-403-05,361,BUN,Blood Urea Nitrogen (BUN),5.8,mg/dL,8,20,4,VISIT 3,26,LOW
ABC001,ABC001-403-05,361,CA,Calcium,9.64,mg/dL,8.5,10.5,4,VISIT 3,26,NORMAL
ABC001,ABC001-403-05,361,GLUC,Glucose,106.8,mg/dL,60,115,4,VISIT 3,26,NORMAL
ABC001,ABC001-403-05,362,ALB,Albumin,4.1,g/dL,3.4,4.7,5,VISIT 4,39,NORMAL
ABC001,ABC001-403-05,362,BUN,Blood Urea Nitrogen (BUN),15.8,mg/dL,8,20,5,VISIT 4,39,NORMAL
ABC001,ABC001-403-05,362,CA,Calcium,9.31,mg/dL,8.5,10.5,5,VISIT 4,39,NORMAL
ABC001,ABC001-403-05,362,GLUC,Glucose,79.0,mg/dL,60,115,5,VISIT 4,39,NORMAL
ABC001,ABC001-403-05,363,ALB,Albumin,4.1,g/dL,3.4,4.7,6,VISIT 5,52,NORMAL
ABC001,ABC001-403-05,363,BUN,Blood Urea Nitrogen (BUN),12.9,mg/dL,8,20,6,VISIT 5,52,NORMAL
ABC001,ABC001-403-05,363,CA,Calcium,9.51,mg/dL,8.5,10.5,6,VISIT 5,52,NORMAL
ABC001,ABC001-403-05,363,GLUC,Glucose,91.5,mg/dL,60,115,6,VISIT 5,52,NORMAL
ABC001,ABC001-403-05,364,ALB,Albumin,4.6,g/dL,3.4,4.7,7,VISIT 6,66,NORMAL
ABC001,ABC001-403-05,364,BUN,Blood Urea Nitrogen (BUN),12.2,mg/dL,8,20,7,VISIT 6,66,NORMAL
ABC001,ABC001-403-05,364,CA,Calcium,8.98,mg/dL,8.5,10.5,7,VISIT 6,66,NORMAL
ABC001,ABC001-403-05,364,GLUC,Glucose,103.6,mg/dL,60,115,7,VISIT 6,66,NORMAL
ABC001,ABC001-403-06,365,ALB,Albumin,4.2,g/dL,3.4,4.7,1,SCREENING,-13,NORMAL
ABC001,ABC001-403-06,365,BUN,Blood Urea Nitrogen (BUN),11.6,mg/dL,8,20,1,SCREENING,-13,NORMAL
ABC001,ABC001-403-06,365,CA,Calcium,9.71,mg/dL,8.5,10.5,1,SCREENING,-13,NORMAL
ABC001,ABC001-403-06,365,GLUC,Glucose,70.3,mg/dL,60,115,1,SCREENING,-13,NORMAL
ABC001,ABC001-403-06,366,ALB,Albumin,3.8,g/dL,3.4,4.7,2,BASELINE,1,NORMAL
ABC001,ABC001-403-06,366,BUN,Blood Urea Nitrogen (BUN),9.9,mg/dL,8,20,2,BASELINE,1,NORMAL
ABC001,ABC001-403-06,366,CA,Calcium,9.03,mg/dL,8.5,10.5,2,BASELINE,1,NORMAL
ABC001,ABC001-403-06,366,GLUC,Glucose,78.9,mg/dL,60,115,2,BASELINE,1,NORMAL
ABC001,ABC001-403-06,367,ALB,Albumin,4.0,g/dL,3.4,4.7,3,VISIT 2,16,NORMAL
ABC001,ABC001-403-06,367,BUN,Blood Urea Nitrogen (BUN),17.0,mg/dL,8,20,3,VISIT 2,16,NORMAL
ABC001,ABC001-403-06,367,CA,Calcium,8.72,mg/dL,8.5,10.5,3,VISIT 2,16,NORMAL
ABC001,ABC001-403-06,367,GLUC,Glucose,78.0,mg/dL,60,115,3,VISIT 2,16,NORMAL
ABC001,ABC001-403-06,368,ALB,Albumin,3.8,g/dL,3.4,4.7,4,VISIT 3,29,NORMAL
ABC001,ABC001-403-06,368,BUN,Blood Urea Nitrogen (BUN),15.4,mg/dL,8,20,4,VISIT 3,29,NORMAL
ABC001,ABC001-403-06,368,CA,Calcium,9.95,mg/dL,8.5,10.5,4,VISIT 3,29,NORMAL
ABC001,ABC001-403-06,368,GLUC,Glucose,62.4,mg/dL,60,115,4,VISIT 3,29,NORMAL
ABC001,ABC001-403-06,369,ALB,Albumin,3.8,g/dL,3.4,4.7,5,VISIT 4,44,NORMAL
ABC001,ABC001-403-06,369,BUN,Blood Urea Nitrogen (BUN),13.5,mg/dL,8,20,5,VISIT 4,44,NORMAL
ABC001,ABC001-403-06,369,CA,Calcium,9.46,mg/dL,8.5,10.5,5,VISIT 4,44,NORMAL
ABC001,ABC001-403-06,369,GLUC,Glucose,97.3,mg/dL,60,115,5,VISIT 4,44,NORMAL
ABC001,ABC001-403-06,370,ALB,Albumin,4.6,g/dL,3.4,4.7,6,VISIT 5,57,NORMAL
ABC001,ABC001-403-06,370,BUN,Blood Urea Nitrogen (BUN),15.9,mg/dL,8,20,6,VISIT 5,57,NORMAL
ABC001,ABC001-403-06,370,CA,Calcium,9.15,mg/dL,8.5,10.5,6,VISIT 5,57,NORMAL
ABC001,ABC001-403-06,370,GLUC,Glucose,113.0,mg/dL,60,115,6,VISIT 5,57,NORMAL
ABC001,ABC001-403-06,371,ALB,Albumin,4.4,g/dL,3.4,4.7,7,VISIT 6,71,NORMAL
ABC001,ABC001-403-06,371,BUN,Blood Urea Nitrogen (BUN),16.2,mg/dL,8,20,7,VISIT 6,71,NORMAL
ABC001,ABC001-403-06,371,CA,Calcium,10.71,mg/dL,8.5,10.5,7,VISIT 6,71,HIGH
ABC001,ABC001-403-06,371,GLUC,Glucose,101.2,mg/dL,60,115,7,VISIT 6,71,NORMAL
ABC001,ABC001-404-01,372,ALB,Albumin,4.2,g/dL,3.4,4.7,1,SCREENING,-14,NORMAL
ABC001,ABC001-404-01,372,BUN,Blood Urea Nitrogen (BUN),12.9,mg/dL,8,20,1,SCREENING,-14,NORMAL
ABC001,ABC001-404-01,372,CA,Calcium,9.4,mg/dL,8.5,10.5,1,SCREENING,-14,NORMAL
ABC001,ABC001-404-01,372,GLUC,Glucose,82.7,mg/dL,60,115,1,SCREENING,-14,NORMAL
ABC001,ABC001-404-01,373,ALB,Albumin,4.1,g/dL,3.4,4.7,2,BASELINE,1,NORMAL
ABC001,ABC001-404-01,373,BUN,Blood Urea Nitrogen (BUN),14.4,mg/dL,8,20,2,BASELINE,1,NORMAL
ABC001,ABC001-404-01,373,CA,Calcium,10.23,mg/dL,8.5,10.5,2,BASELINE,1,NORMAL
ABC001,ABC001-404-01,373,GLUC,Glucose,90.0,mg/dL,60,115,2,BASELINE,1,NORMAL
ABC001,ABC001-404-01,374,ALB,Albumin,3.9,g/dL,3.4,4.7,3,VISIT 2,14,NORMAL
ABC001,ABC001-404-01,374,BUN,Blood Urea Nitrogen (BUN),14.2,mg/dL,8,20,3,VISIT 2,14,NORMAL
ABC001,ABC001-404-01,374,CA,Calcium,9.59,mg/dL,8.5,10.5,3,VISIT 2,14,NORMAL
ABC001,ABC001-404-01,374,GLUC,Glucose,78.8,mg/dL,60,115,3,VISIT 2,14,NORMAL
ABC001,ABC001-404-01,375,ALB,Albumin,3.7,g/dL,3.4,4.7,4,VISIT 3,28,NORMAL
ABC001,ABC001-404-01,375,BUN,Blood Urea Nitrogen (BUN),13.2,mg/dL,8,20,4,VISIT 3,28,NORMAL
ABC001,ABC001-404-01,375,CA,Calcium,9.66,mg/dL,8.5,10.5,4,VISIT 3,28,NORMAL
ABC001,ABC001-404-01,375,GLUC,Glucose,57.4,mg/dL,60,115,4,VISIT 3,28,LOW
ABC001,ABC001-404-01,376,ALB,Albumin,3.9,g/dL,3.4,4.7,5,VISIT 4,42,NORMAL
ABC001,ABC001-404-01,376,BUN,Blood Urea Nitrogen (BUN),15.1,mg/dL,8,20,5,VISIT 4,42,NORMAL
ABC001,ABC001-404-01,376,CA,Calcium,8.72,mg/dL,8.5,10.5,5,VISIT 4,42,NORMAL
ABC001,ABC001-404-01,376,GLUC,Glucose,104.9,mg/dL,60,115,5,VISIT 4,42,NORMAL
ABC001,ABC001-404-01,377,ALB,Albumin,4.0,g/dL,3.4,4.7,6,VISIT 5,56,NORMAL
ABC001,ABC001-404-01,377,BUN,Blood Urea Nitrogen (BUN),15.2,mg/dL,8,20,6,VISIT 5,56,NORMAL
ABC001,ABC001-404-01,377,CA,Calcium,9.77,mg/dL,8.5,10.5,6,VISIT 5,56,NORMAL
ABC001,ABC001-404-01,377,GLUC,Glucose,96.7,mg/dL,60,115,6,VISIT 5,56,NORMAL
ABC001,ABC001-404-01,378,ALB,Albumin,3.4,g/dL,3.4,4.7,7,VISIT 6,69,NORMAL
ABC001,ABC001-404-01,378,BUN,Blood Urea Nitrogen (BUN),12.3,mg/dL,8,20,7,VISIT 6,69,NORMAL
ABC001,ABC001-404-01,378,CA,Calcium,9.38,mg/dL,8.5,10.5,7,VISIT 6,69,NORMAL
ABC001,ABC001-404-01,378,GLUC,Glucose,87.4,mg/dL,60,115,7,VISIT 6,69,NORMAL
ABC001,ABC001-404-02,379,ALB,Albumin,3.7,g/dL,3.4,4.7,1,SCREENING,-11,NORMAL
ABC001,ABC001-404-02,379,BUN,Blood Urea Nitrogen (BUN),15.2,mg/dL,8,20,1,SCREENING,-11,NORMAL
ABC001,ABC001-404-02,379,CA,Calcium,9.93,mg/dL,8.5,10.5,1,SCREENING,-11,NORMAL
ABC001,ABC001-404-02,379,GLUC,Glucose,97.2,mg/dL,60,115,1,SCREENING,-11,NORMAL
ABC001,ABC001-404-02,380,ALB,Albumin,4.0,g/dL,3.4,4.7,2,BASELINE,1,NORMAL
ABC001,ABC001-404-02,380,BUN,Blood Urea Nitrogen (BUN),21.8,mg/dL,8,20,2,BASELINE,1,HIGH
ABC001,ABC001-404-02,380,CA,Calcium,8.7,mg/dL,8.5,10.5,2,BASELINE,1,NORMAL
ABC001,ABC001-404-02,380,GLUC,Glucose,95.2,mg/dL,60,115,2,BASELINE,1,NORMAL
ABC001,ABC001-404-02,381,ALB,Albumin,4.4,g/dL,3.4,4.7,3,VISIT 2,14,NORMAL
ABC001,ABC001-404-02,381,BUN,Blood Urea Nitrogen (BUN),12.9,mg/dL,8,20,3,VISIT 2,14,NORMAL
ABC001,ABC001-404-02,381,CA,Calcium,9.05,mg/dL,8.5,10.5,3,VISIT 2,14,NORMAL
ABC001,ABC001-404-02,381,GLUC,Glucose,83.4,mg/dL,60,115,3,VISIT 2,14,NORMAL
ABC001,ABC001-404-02,382,ALB,Albumin,4.4,g/dL,3.4,4.7,4,VISIT 3,28,NORMAL
ABC001,ABC001-404-02,382,BUN,Blood Urea Nitrogen (BUN),13.1,mg/dL,8,20,4,VISIT 3,28,NORMAL
ABC001,ABC001-404-02,382,CA,Calcium,8.87,mg/dL,8.5,10.5,4,VISIT 3,28,NORMAL
ABC001,ABC001-404-02,382,GLUC,Glucose,92.0,mg/dL,60,115,4,VISIT 3,28,NORMAL
ABC001,ABC001-404-02,383,ALB,Albumin,4.1,g/dL,3.4,4.7,5,VISIT 4,41,NORMAL
ABC001,ABC001-404-02,383,BUN,Blood Urea Nitrogen (BUN),17.9,mg/dL,8,20,5,VISIT 4,41,NORMAL
ABC001,ABC001-404-02,383,CA,Calcium,9.54,mg/dL,8.5,10.5,5,VISIT 4,41,NORMAL
ABC001,ABC001-404-02,383,GLUC,Glucose,89.4,mg/dL,60,115,5,VISIT 4,41,NORMAL
ABC001,ABC001-404-02,384,ALB,Albumin,4.4,g/dL,3.4,4.7,6,VISIT 5,53,NORMAL
ABC001,ABC001-404-02,384,BUN,Blood Urea Nitrogen (BUN),13.7,mg/dL,8,20,6,VISIT 5,53,NORMAL
ABC001,ABC001-404-02,384,CA,Calcium,9.32,mg/dL,8.5,10.5,6,VISIT 5,53,NORMAL
ABC001,ABC001-404-02,384,GLUC,Glucose,86.3,mg/dL,60,115,6,VISIT 5,53,NORMAL
ABC001,ABC001-404-02,385,ALB,Albumin,4.2,g/dL,3.4,4.7,7,VISIT 6,68,NORMAL
ABC001,ABC001-404-02,385,BUN,Blood Urea Nitrogen (BUN),11.9,mg/dL,8,20,7,VISIT 6,68,NORMAL
ABC001,ABC001-404-02,385,CA,Calcium,9.55,mg/dL,8.5,10.5,7,VISIT 6,68,NORMAL
ABC001,ABC001-404-02,385,GLUC,Glucose,103.3,mg/dL,60,115,7,VISIT 6,68,NORMAL
ABC001,ABC001-404-03,386,ALB,Albumin,4.0,g/dL,3.4,4.7,1,SCREENING,,NORMAL
ABC001,ABC001-404-03,386,BUN,Blood Urea Nitrogen (BUN),19.5,mg/dL,8,20,1,SCREENING,,NORMAL
ABC001,ABC001-404-03,386,CA,Calcium,10.55,mg/dL,8.5,10.5,1,SCREENING,,HIGH
ABC001,ABC001-404-03,386,GLUC,Glucose,71.1,mg/dL,60,115,1,SCREENING,,NORMAL
ABC001,ABC001-404-04,387,ALB,Albumin,3.7,g/dL,3.4,4.7,1,SCREENING,-13,NORMAL
ABC001,ABC001-404-04,387,BUN,Blood Urea Nitrogen (BUN),10.2,mg/dL,8,20,1,SCREENING,-13,NORMAL
ABC001,ABC001-404-04,387,CA,Calcium,9.98,mg/dL,8.5,10.5,1,SCREENING,-13,NORMAL
ABC001,ABC001-404-04,387,GLUC,Glucose,118.6,mg/dL,60,115,1,SCREENING,-13,HIGH
ABC001,ABC001-404-04,388,ALB,Albumin,3.9,g/dL,3.4,4.7,2,BASELINE,1,NORMAL
ABC001,ABC001-404-04,388,BUN,Blood Urea Nitrogen (BUN),15.1,mg/dL,8,20,2,BASELINE,1,NORMAL
ABC001,ABC001-404-04,388,CA,Calcium,9.22,mg/dL,8.5,10.5,2,BASELINE,1,NORMAL
ABC001,ABC001-404-04,388,GLUC,Glucose,76.7,mg/dL,60,115,2,BASELINE,1,NORMAL
ABC001,ABC001-404-04,389,ALB,Albumin,3.3,g/dL,3.4,4.7,3,VISIT 2,15,LOW
ABC001,ABC001-404-04,389,BUN,Blood Urea Nitrogen (BUN),15.2,mg/dL,8,20,3,VISIT 2,15,NORMAL
ABC001,ABC001-404-04,389,CA,Calcium,9.23,mg/dL,8.5,10.5,3,VISIT 2,15,NORMAL
ABC001,ABC001-404-04,389,GLUC,Glucose,78.3,mg/dL,60,115,3,VISIT 2,15,NORMAL
ABC001,ABC001-404-04,390,ALB,Albumin,4.3,g/dL,3.4,4.7,4,VISIT 3,29,NORMAL
ABC001,ABC001-404-04,390,BUN,Blood Urea Nitrogen (BUN),16.0,mg/dL,8,20,4,VISIT 3,29,NORMAL
ABC001,ABC001-404-04,390,CA,Calcium,10.01,mg/dL,8.5,10.5,4,VISIT 3,29,NORMAL
ABC001,ABC001-404-04,390,GLUC,Glucose,93.4,mg/dL,60,115,4,VISIT 3,29,NORMAL
ABC001,ABC001-404-04,391,ALB,Albumin,3.8,g/dL,3.4,4.7,5,VISIT 4,43,NORMAL
ABC001,ABC001-404-04,391,BUN,Blood Urea Nitrogen (BUN),14.3,mg/dL,8,20,5,VISIT 4,43,NORMAL
ABC001,ABC001-404-04,391,CA,Calcium,9.87,mg/dL,8.5,10.5,5,VISIT 4,43,NORMAL
ABC001,ABC001-404-04,391,GLUC,Glucose,106.1,mg/dL,60,115,5,VISIT 4,43,NORMAL
ABC001,ABC001-404-04,392,ALB,Albumin,4.2,g/dL,3.4,4.7,6,VISIT 5,57,NORMAL
ABC001,ABC001-404-04,392,BUN,Blood Urea Nitrogen (BUN),13.8,mg/dL,8,20,6,VISIT 5,57,NORMAL
ABC001,ABC001-404-04,392,CA,Calcium,9.39,mg/dL,8.5,10.5,6,VISIT 5,57,NORMAL
ABC001,ABC001-404-04,392,GLUC,Glucose,82.6,mg/dL,60,115,6,VISIT 5,57,NORMAL
ABC001,ABC001-404-05,393,ALB,Albumin,3.9,g/dL,3.4,4.7,1,SCREENING,-13,NORMAL
ABC001,ABC001-404-05,393,BUN,Blood Urea Nitrogen (BUN),14.1,mg/dL,8,20,1,SCREENING,-13,NORMAL
ABC001,ABC001-404-05,393,CA,Calcium,9.69,mg/dL,8.5,10.5,1,SCREENING,-13,NORMAL
ABC001,ABC001-404-05,393,GLUC,Glucose,99.5,mg/dL,60,115,1,SCREENING,-13,NORMAL
ABC001,ABC001-404-05,394,ALB,Albumin,3.7,g/dL,3.4,4.7,2,BASELINE,1,NORMAL
ABC001,ABC001-404-05,394,BUN,Blood Urea Nitrogen (BUN),17.2,mg/dL,8,20,2,BASELINE,1,NORMAL
ABC001,ABC001-404-05,394,CA,Calcium,9.79,mg/dL,8.5,10.5,2,BASELINE,1,NORMAL
ABC001,ABC001-404-05,394,GLUC,Glucose,79.8,mg/dL,60,115,2,BASELINE,1,NORMAL
ABC001,ABC001-404-05,395,ALB,Albumin,4.3,g/dL,3.4,4.7,3,VISIT 2,15,NORMAL
ABC001,ABC001-404-05,395,BUN,Blood Urea Nitrogen (BUN),8.3,mg/dL,8,20,3,VISIT 2,15,NORMAL
ABC001,ABC001-404-05,395,CA,Calcium,8.77,mg/dL,8.5,10.5,3,VISIT 2,15,NORMAL
ABC001,ABC001-404-05,395,GLUC,Glucose,114.5,mg/dL,60,115,3,VISIT 2,15,NORMAL
ABC001,ABC001-404-05,396,ALB,Albumin,3.8,g/dL,3.4,4.7,4,VISIT 3,28,NORMAL
ABC001,ABC001-404-05,396,BUN,Blood Urea Nitrogen (BUN),14.4,mg/dL,8,20,4,VISIT 3,28,NORMAL
ABC001,ABC001-404-05,396,CA,Calcium,9.22,mg/dL,8.5,10.5,4,VISIT 3,28,NORMAL
ABC001,ABC001-404-05,396,GLUC,Glucose,101.4,mg/dL,60,115,4,VISIT 3,28,NORMAL
ABC001,ABC001-404-05,397,ALB,Albumin,4.1,g/dL,3.4,4.7,5,VISIT 4,42,NORMAL
ABC001,ABC001-404-05,397,BUN,Blood Urea Nitrogen (BUN),16.8,mg/dL,8,20,5,VISIT 4,42,NORMAL
ABC001,ABC001-404-05,397,CA,Calcium,9.89,mg/dL,8.5,10.5,5,VISIT 4,42,NORMAL
ABC001,ABC001-404-05,397,GLUC,Glucose,120.9,mg/dL,60,115,5,VISIT 4,42,HIGH
ABC001,ABC001-404-05,398,ALB,Albumin,3.7,g/dL,3.4,4.7,6,VISIT 5,56,NORMAL
ABC001,ABC001-404-05,398,BUN,Blood Urea Nitrogen (BUN),13.0,mg/dL,8,20,6,VISIT 5,56,NORMAL
ABC001,ABC001-404-05,398,CA,Calcium,9.06,mg/dL,8.5,10.5,6,VISIT 5,56,NORMAL
ABC001,ABC001-404-05,398,GLUC,Glucose,88.1,mg/dL,60,115,6,VISIT 5,56,NORMAL
ABC001,ABC001-404-05,399,ALB,Albumin,4.1,g/dL,3.4,4.7,7,VISIT 6,69,NORMAL
ABC001,ABC001-404-05,399,BUN,Blood Urea Nitrogen (BUN),16.6,mg/dL,8,20,7,VISIT 6,69,NORMAL
ABC001,ABC001-404-05,399,CA,Calcium,9.52,mg/dL,8.5,10.5,7,VISIT 6,69,NORMAL
ABC001,ABC001-404-05,399,GLUC,Glucose,84.5,mg/dL,60,115,7,VISIT 6,69,NORMAL
ABC001,ABC001-404-06,400,ALB,Albumin,3.3,g/dL,3.4,4.7,1,SCREENING,-15,LOW
ABC001,ABC001-404-06,400,BUN,Blood Urea Nitrogen (BUN),11.0,mg/dL,8,20,1,SCREENING,-15,NORMAL
ABC001,ABC001-404-06,400,CA,Calcium,9.52,mg/dL,8.5,10.5,1,SCREENING,-15,NORMAL
ABC001,ABC001-404-06,400,GLUC,Glucose,83.0,mg/dL,60,115,1,SCREENING,-15,NORMAL
ABC001,ABC001-404-06,401,ALB,Albumin,3.3,g/dL,3.4,4.7,2,BASELINE,1,LOW
ABC001,ABC001-404-06,401,BUN,Blood Urea Nitrogen (BUN),13.4,mg/dL,8,20,2,BASELINE,1,NORMAL
ABC001,ABC001-404-06,401,CA,Calcium,8.92,mg/dL,8.5,10.5,2,BASELINE,1,NORMAL
ABC001,ABC001-404-06,401,GLUC,Glucose,88.0,mg/dL,60,115,2,BASELINE,1,NORMAL
ABC001,ABC001-404-06,402,ALB,Albumin,4.8,g/dL,3.4,4.7,3,VISIT 2,15,HIGH
ABC001,ABC001-404-06,402,BUN,Blood Urea Nitrogen (BUN),12.1,mg/dL,8,20,3,VISIT 2,15,NORMAL
ABC001,ABC001-404-06,402,CA,Calcium,9.26,mg/dL,8.5,10.5,3,VISIT 2,15,NORMAL
ABC001,ABC001-404-06,402,GLUC,Glucose,74.9,mg/dL,60,115,3,VISIT 2,15,NORMAL
ABC001,ABC001-404-06,403,ALB,Albumin,4.0,g/dL,3.4,4.7,4,VISIT 3,29,NORMAL
ABC001,ABC001-404-06,403,BUN,Blood Urea Nitrogen (BUN),8.9,mg/dL,8,20,4,VISIT 3,29,NORMAL
ABC001,ABC001-404-06,403,CA,Calcium,10.02,mg/dL,8.5,10.5,4,VISIT 3,29,NORMAL
ABC001,ABC001-404-06,403,GLUC,Glucose,112.9,mg/dL,60,115,4,VISIT 3,29,NORMAL
ABC001,ABC001-404-06,404,ALB,Albumin,4.1,g/dL,3.4,4.7,5,VISIT 4,43,NORMAL
ABC001,ABC001-404-06,404,BUN,Blood Urea Nitrogen (BUN),12.3,mg/dL,8,20,5,VISIT 4,43,NORMAL
ABC001,ABC001-404-06,404,CA,Calcium,9.67,mg/dL,8.5,10.5,5,VISIT 4,43,NORMAL
ABC001,ABC001-404-06,404,GLUC,Glucose,96.2,mg/dL,60,115,5,VISIT 4,43,NORMAL
ABC001,ABC001-404-06,405,ALB,Albumin,3.9,g/dL,3.4,4.7,6,VISIT 5,57,NORMAL
ABC001,ABC001-404-06,405,BUN,Blood Urea Nitrogen (BUN),12.5,mg/dL,8,20,6,VISIT 5,57,NORMAL
ABC001,ABC001-404-06,405,CA,Calcium,9.97,mg/dL,8.5,10.5,6,VISIT 5,57,NORMAL
ABC001,ABC001-404-06,405,GLUC,Glucose,92.5,mg/dL,60,115,6,VISIT 5,57,NORMAL
ABC001,ABC001-404-07,406,ALB,Albumin,4.4,g/dL,3.4,4.7,1,SCREENING,-14,NORMAL
ABC001,ABC001-404-07,406,BUN,Blood Urea Nitrogen (BUN),14.8,mg/dL,8,20,1,SCREENING,-14,NORMAL
ABC001,ABC001-404-07,406,CA,Calcium,8.4,mg/dL,8.5,10.5,1,SCREENING,-14,LOW
ABC001,ABC001-404-07,406,GLUC,Glucose,61.8,mg/dL,60,115,1,SCREENING,-14,NORMAL
ABC001,ABC001-404-07,407,ALB,Albumin,4.2,g/dL,3.4,4.7,2,BASELINE,1,NORMAL
ABC001,ABC001-404-07,407,BUN,Blood Urea Nitrogen (BUN),13.2,mg/dL,8,20,2,BASELINE,1,NORMAL
ABC001,ABC001-404-07,407,CA,Calcium,9.61,mg/dL,8.5,10.5,2,BASELINE,1,NORMAL
ABC001,ABC001-404-07,407,GLUC,Glucose,104.9,mg/dL,60,115,2,BASELINE,1,NORMAL
ABC001,ABC001-404-07,408,ALB,Albumin,3.9,g/dL,3.4,4.7,3,VISIT 2,16,NORMAL
ABC001,ABC001-404-07,408,BUN,Blood Urea Nitrogen (BUN),14.1,mg/dL,8,20,3,VISIT 2,16,NORMAL
ABC001,ABC001-404-07,408,CA,Calcium,8.73,mg/dL,8.5,10.5,3,VISIT 2,16,NORMAL
ABC001,ABC001-404-07,408,GLUC,Glucose,94.2,mg/dL,60,115,3,VISIT 2,16,NORMAL
ABC001,ABC001-404-07,409,ALB,Albumin,4.0,g/dL,3.4,4.7,4,VISIT 3,28,NORMAL
ABC001,ABC001-404-07,409,BUN,Blood Urea Nitrogen (BUN),13.2,mg/dL,8,20,4,VISIT 3,28,NORMAL
ABC001,ABC001-404-07,409,CA,Calcium,9.75,mg/dL,8.5,10.5,4,VISIT 3,28,NORMAL
ABC001,ABC001-404-07,409,GLUC,Glucose,78.4,mg/dL,60,115,4,VISIT 3,28,NORMAL
ABC001,ABC001-404-07,410,ALB,Albumin,4.2,g/dL,3.4,4.7,5,VISIT 4,41,NORMAL
ABC001,ABC001-404-07,410,BUN,Blood Urea Nitrogen (BUN),16.5,mg/dL,8,20,5,VISIT 4,41,NORMAL
ABC001,ABC001-404-07,410,CA,Calcium,9.58,mg/dL,8.5,10.5,5,VISIT 4,41,NORMAL
ABC001,ABC001-404-07,410,GLUC,Glucose,70.3,mg/dL,60,115,5,VISIT 4,41,NORMAL
ABC001,ABC001-404-07,411,ALB,Albumin,3.9,g/dL,3.4,4.7,6,VISIT 5,55,NORMAL
ABC001,ABC001-404-07,411,BUN,Blood Urea Nitrogen (BUN),12.5,mg/dL,8,20,6,VISIT 5,55,NORMAL
ABC001,ABC001-404-07,411,CA,Calcium,10.29,mg/dL,8.5,10.5,6,VISIT 5,55,NORMAL
ABC001,ABC001-404-07,411,GLUC,Glucose,90.6,mg/dL,60,115,6,VISIT 5,55,NORMAL
ABC001,ABC001-404-07,412,ALB,Albumin,3.7,g/dL,3.4,4.7,7,VISIT 6,70,NORMAL
ABC001,ABC001-404-07,412,BUN,Blood Urea Nitrogen (BUN),14.6,mg/dL,8,20,7,VISIT 6,70,NORMAL
ABC001,ABC001-404-07,412,CA,Calcium,9.52,mg/dL,8.5,10.5,7,VISIT 6,70,NORMAL
ABC001,ABC001-404-07,412,GLUC,Glucose,82.1,mg/dL,60,115,7,VISIT 6,70,NORMAL
ABC001,ABC001-404-08,413,ALB,Albumin,4.3,g/dL,3.4,4.7,1,SCREENING,-14,NORMAL
ABC001,ABC001-404-08,413,BUN,Blood Urea Nitrogen (BUN),19.2,mg/dL,8,20,1,SCREENING,-14,NORMAL
ABC001,ABC001-404-08,413,CA,Calcium,9.33,mg/dL,8.5,10.5,1,SCREENING,-14,NORMAL
ABC001,ABC001-404-08,413,GLUC,Glucose,81.8,mg/dL,60,115,1,SCREENING,-14,NORMAL
ABC001,ABC001-404-08,414,ALB,Albumin,3.9,g/dL,3.4,4.7,2,BASELINE,1,NORMAL
ABC001,ABC001-404-08,414,BUN,Blood Urea Nitrogen (BUN),12.3,mg/dL,8,20,2,BASELINE,1,NORMAL
ABC001,ABC001-404-08,414,CA,Calcium,9.95,mg/dL,8.5,10.5,2,BASELINE,1,NORMAL
ABC001,ABC001-404-08,414,GLUC,Glucose,87.8,mg/dL,60,115,2,BASELINE,1,NORMAL
ABC001,ABC001-404-08,415,ALB,Albumin,3.9,g/dL,3.4,4.7,3,VISIT 2,14,NORMAL
ABC001,ABC001-404-08,415,BUN,Blood Urea Nitrogen (BUN),21.7,mg/dL,8,20,3,VISIT 2,14,HIGH
ABC001,ABC001-404-08,415,CA,Calcium,9.93,mg/dL,8.5,10.5,3,VISIT 2,14,NORMAL
ABC001,ABC001-404-08,415,GLUC,Glucose,88.5,mg/dL,60,115,3,VISIT 2,14,NORMAL
ABC001,ABC001-404-08,416,ALB,Albumin,4.2,g/dL,3.4,4.7,4,VISIT 3,26,NORMAL
ABC001,ABC001-404-08,416,BUN,Blood Urea Nitrogen (BUN),18.6,mg/dL,8,20,4,VISIT 3,26,NORMAL
ABC001,ABC001-404-08,416,CA,Calcium,9.58,mg/dL,8.5,10.5,4,VISIT 3,26,NORMAL
ABC001,ABC001-404-08,416,GLUC,Glucose,76.4,mg/dL,60,115,4,VISIT 3,26,NORMAL
ABC001,ABC001-404-08,417,ALB,Albumin,3.3,g/dL,3.4,4.7,5,VISIT 4,40,LOW
ABC001,ABC001-404-08,417,BUN,Blood Urea Nitrogen (BUN),14.2,mg/dL,8,20,5,VISIT 4,40,NORMAL
ABC001,ABC001-404-08,417,CA,Calcium,9.97,mg/dL,8.5,10.5,5,VISIT 4,40,NORMAL
ABC001,ABC001-404-08,417,GLUC,Glucose,81.1,mg/dL,60,115,5,VISIT 4,40,NORMAL
ABC001,ABC001-404-08,418,ALB,Albumin,3.8,g/dL,3.4,4.7,6,VISIT 5,53,NORMAL
ABC001,ABC001-404-08,418,BUN,Blood Urea Nitrogen (BUN),17.0,mg/dL,8,20,6,VISIT 5,53,NORMAL
ABC001,ABC001-404-08,418,CA,Calcium,10.41,mg/dL,8.5,10.5,6,VISIT 5,53,NORMAL
ABC001,ABC001-404-08,418,GLUC,Glucose,96.6,mg/dL,60,115,6,VISIT 5,53,NORMAL
ABC001,ABC001-404-08,419,ALB,Albumin,4.2,g/dL,3.4,4.7,7,VISIT 6,64,NORMAL
ABC001,ABC001-404-08,419,BUN,Blood Urea Nitrogen (BUN),11.8,mg/dL,8,20,7,VISIT 6,64,NORMAL
ABC001,ABC001-404-08,419,CA,Calcium,9.64,mg/dL,8.5,10.5,7,VISIT 6,64,NORMAL
ABC001,ABC001-404-08,419,GLUC,Glucose,118.2,mg/dL,60,115,7,VISIT 6,64,HIGH
ABC001,ABC001-501-01,420,ALB,Albumin,3.5,g/dL,3.4,4.7,1,SCREENING,-12,NORMAL
ABC001,ABC001-501-01,420,BUN,Blood Urea Nitrogen (BUN),19.8,mg/dL,8,20,1,SCREENING,-12,NORMAL
ABC001,ABC001-501-01,420,CA,Calcium,8.94,mg/dL,8.5,10.5,1,SCREENING,-12,NORMAL
ABC001,ABC001-501-01,420,GLUC,Glucose,92.8,mg/dL,60,115,1,SCREENING,-12,NORMAL
ABC001,ABC001-501-01,421,ALB,Albumin,3.8,g/dL,3.4,4.7,2,BASELINE,1,NORMAL
ABC001,ABC001-501-01,421,BUN,Blood Urea Nitrogen (BUN),12.9,mg/dL,8,20,2,BASELINE,1,NORMAL
ABC001,ABC001-501-01,421,CA,Calcium,10.08,mg/dL,8.5,10.5,2,BASELINE,1,NORMAL
ABC001,ABC001-501-01,421,GLUC,Glucose,102.1,mg/dL,60,115,2,BASELINE,1,NORMAL
ABC001,ABC001-501-01,422,ALB,Albumin,3.8,g/dL,3.4,4.7,3,VISIT 2,15,NORMAL
ABC001,ABC001-501-01,422,BUN,Blood Urea Nitrogen (BUN),11.9,mg/dL,8,20,3,VISIT 2,15,NORMAL
ABC001,ABC001-501-01,422,CA,Calcium,9.07,mg/dL,8.5,10.5,3,VISIT 2,15,NORMAL
ABC001,ABC001-501-01,422,GLUC,Glucose,89.1,mg/dL,60,115,3,VISIT 2,15,NORMAL
ABC001,ABC001-501-02,423,ALB,Albumin,4.2,g/dL,3.4,4.7,1,SCREENING,-15,NORMAL
ABC001,ABC001-501-02,423,BUN,Blood Urea Nitrogen (BUN),8.8,mg/dL,8,20,1,SCREENING,-15,NORMAL
ABC001,ABC001-501-02,423,CA,Calcium,9.41,mg/dL,8.5,10.5,1,SCREENING,-15,NORMAL
ABC001,ABC001-501-02,423,GLUC,Glucose,97.8,mg/dL,60,115,1,SCREENING,-15,NORMAL
ABC001,ABC001-501-02,424,ALB,Albumin,3.5,g/dL,3.4,4.7,2,BASELINE,1,NORMAL
ABC001,ABC001-501-02,424,BUN,Blood Urea Nitrogen (BUN),13.5,mg/dL,8,20,2,BASELINE,1,NORMAL
ABC001,ABC001-501-02,424,CA,Calcium,9.47,mg/dL,8.5,10.5,2,BASELINE,1,NORMAL
ABC001,ABC001-501-02,424,GLUC,Glucose,100.5,mg/dL,60,115,2,BASELINE,1,NORMAL
ABC001,ABC001-501-02,425,ALB,Albumin,4.0,g/dL,3.4,4.7,3,VISIT 2,13,NORMAL
ABC001,ABC001-501-02,425,BUN,Blood Urea Nitrogen (BUN),13.8,mg/dL,8,20,3,VISIT 2,13,NORMAL
ABC001,ABC001-501-02,425,CA,Calcium,9.48,mg/dL,8.5,10.5,3,VISIT 2,13,NORMAL
ABC001,ABC001-501-02,425,GLUC,Glucose,111.2,mg/dL,60,115,3,VISIT 2,13,NORMAL
ABC001,ABC001-501-02,426,ALB,Albumin,3.7,g/dL,3.4,4.7,4,VISIT 3,26,NORMAL
ABC001,ABC001-501-02,426,BUN,Blood Urea Nitrogen (BUN),14.2,mg/dL,8,20,4,VISIT 3,26,NORMAL
ABC001,ABC001-501-02,426,CA,Calcium,10.51,mg/dL,8.5,10.5,4,VISIT 3,26,HIGH
ABC001,ABC001-501-02,426,GLUC,Glucose,79.0,mg/dL,60,115,4,VISIT 3,26,NORMAL
ABC001,ABC001-501-02,427,ALB,Albumin,4.3,g/dL,3.4,4.7,5,VISIT 4,41,NORMAL
ABC001,ABC001-501-02,427,BUN,Blood Urea Nitrogen (BUN),14.1,mg/dL,8,20,5,VISIT 4,41,NORMAL
ABC001,ABC001-501-02,427,CA,Calcium,9.53,mg/dL,8.5,10.5,5,VISIT 4,41,NORMAL
ABC001,ABC001-501-02,427,GLUC,Glucose,93.1,mg/dL,60,115,5,VISIT 4,41,NORMAL
ABC001,ABC001-501-02,428,ALB,Albumin,4.3,g/dL,3.4,4.7,6,VISIT 5,55,NORMAL
ABC001,ABC001-501-02,428,BUN,Blood Urea Nitrogen (BUN),14.7,mg/dL,8,20,6,VISIT 5,55,NORMAL
ABC001,ABC001-501-02,428,CA,Calcium,10.11,mg/dL,8.5,10.5,6,VISIT 5,55,NORMAL
ABC001,ABC001-501-02,428,GLUC,Glucose,70.4,mg/dL,60,115,6,VISIT 5,55,NORMAL
ABC001,ABC001-501-02,429,ALB,Albumin,3.9,g/dL,3.4,4.7,7,VISIT 6,69,NORMAL
ABC001,ABC001-501-02,429,BUN,Blood Urea Nitrogen (BUN),9.5,mg/dL,8,20,7,VISIT 6,69,NORMAL
ABC001,ABC001-501-02,429,CA,Calcium,9.77,mg/dL,8.5,10.5,7,VISIT 6,69,NORMAL
ABC001,ABC001-501-02,429,GLUC,Glucose,111.0,mg/dL,60,115,7,VISIT 6,69,NORMAL
ABC001,ABC001-501-03,430,ALB,Albumin,3.8,g/dL,3.4,4.7,1,SCREENING,-14,NORMAL
ABC001,ABC001-501-03,430,BUN,Blood Urea Nitrogen (BUN),13.6,mg/dL,8,20,1,SCREENING,-14,NORMAL
ABC001,ABC001-501-03,430,CA,Calcium,9.73,mg/dL,8.5,10.5,1,SCREENING,-14,NORMAL
ABC001,ABC001-501-03,430,GLUC,Glucose,82.2,mg/dL,60,115,1,SCREENING,-14,NORMAL
ABC001,ABC001-501-03,431,ALB,Albumin,3.7,g/dL,3.4,4.7,2,BASELINE,1,NORMAL
ABC001,ABC001-501-03,431,BUN,Blood Urea Nitrogen (BUN),15.7,mg/dL,8,20,2,BASELINE,1,NORMAL
ABC001,ABC001-501-03,431,CA,Calcium,8.73,mg/dL,8.5,10.5,2,BASELINE,1,NORMAL
ABC001,ABC001-501-03,431,GLUC,Glucose,86.1,mg/dL,60,115,2,BASELINE,1,NORMAL
ABC001,ABC001-501-03,432,ALB,Albumin,3.5,g/dL,3.4,4.7,3,VISIT 2,15,NORMAL
ABC001,ABC001-501-03,432,BUN,Blood Urea Nitrogen (BUN),11.9,mg/dL,8,20,3,VISIT 2,15,NORMAL
ABC001,ABC001-501-03,432,CA,Calcium,9.94,mg/dL,8.5,10.5,3,VISIT 2,15,NORMAL
ABC001,ABC001-501-03,432,GLUC,Glucose,97.3,mg/dL,60,115,3,VISIT 2,15,NORMAL
ABC001,ABC001-501-03,433,ALB,Albumin,3.9,g/dL,3.4,4.7,4,VISIT 3,30,NORMAL
ABC001,ABC001-501-03,433,BUN,Blood Urea Nitrogen (BUN),11.8,mg/dL,8,20,4,VISIT 3,30,NORMAL
ABC001,ABC001-501-03,433,CA,Calcium,8.82,mg/dL,8.5,10.5,4,VISIT 3,30,NORMAL
ABC001,ABC001-501-03,433,GLUC,Glucose,86.7,mg/dL,60,115,4,VISIT 3,30,NORMAL
ABC001,ABC001-501-03,434,ALB,Albumin,3.5,g/dL,3.4,4.7,5,VISIT 4,44,NORMAL
ABC001,ABC001-501-03,434,BUN,Blood Urea Nitrogen (BUN),15.0,mg/dL,8,20,5,VISIT 4,44,NORMAL
ABC001,ABC001-501-03,434,CA,Calcium,9.38,mg/dL,8.5,10.5,5,VISIT 4,44,NORMAL
ABC001,ABC001-501-03,434,GLUC,Glucose,97.6,mg/dL,60,115,5,VISIT 4,44,NORMAL
ABC001,ABC001-501-03,435,ALB,Albumin,4.1,g/dL,3.4,4.7,6,VISIT 5,58,NORMAL
ABC001,ABC001-501-03,435,BUN,Blood Urea Nitrogen (BUN),9.5,mg/dL,8,20,6,VISIT 5,58,NORMAL
ABC001,ABC001-501-03,435,CA,Calcium,9.93,mg/dL,8.5,10.5,6,VISIT 5,58,NORMAL
ABC001,ABC001-501-03,435,GLUC,Glucose,95.2,mg/dL,60,115,6,VISIT 5,58,NORMAL
ABC001,ABC001-501-03,436,ALB,Albumin,4.2,g/dL,3.4,4.7,7,VISIT 6,72,NORMAL
ABC001,ABC001-501-03,436,BUN,Blood Urea Nitrogen (BUN),13.8,mg/dL,8,20,7,VISIT 6,72,NORMAL
ABC001,ABC001-501-03,436,CA,Calcium,9.29,mg/dL,8.5,10.5,7,VISIT 6,72,NORMAL
ABC001,ABC001-501-03,436,GLUC,Glucose,104.0,mg/dL,60,115,7,VISIT 6,72,NORMAL
ABC001,ABC001-501-04,437,ALB,Albumin,4.2,g/dL,3.4,4.7,1,SCREENING,-14,NORMAL
ABC001,ABC001-501-04,437,BUN,Blood Urea Nitrogen (BUN),13.1,mg/dL,8,20,1,SCREENING,-14,NORMAL
ABC001,ABC001-501-04,437,CA,Calcium,10.05,mg/dL,8.5,10.5,1,SCREENING,-14,NORMAL
ABC001,ABC001-501-04,437,GLUC,Glucose,69.3,mg/dL,60,115,1,SCREENING,-14,NORMAL
ABC001,ABC001-501-04,438,ALB,Albumin,3.9,g/dL,3.4,4.7,2,BASELINE,1,NORMAL
ABC001,ABC001-501-04,438,BUN,Blood Urea Nitrogen (BUN),16.5,mg/dL,8,20,2,BASELINE,1,NORMAL
ABC001,ABC001-501-04,438,CA,Calcium,9.64,mg/dL,8.5,10.5,2,BASELINE,1,NORMAL
ABC001,ABC001-501-04,438,GLUC,Glucose,106.2,mg/dL,60,115,2,BASELINE,1,NORMAL
ABC001,ABC001-501-04,439,ALB,Albumin,4.5,g/dL,3.4,4.7,3,VISIT 2,14,NORMAL
ABC001,ABC001-501-04,439,BUN,Blood Urea Nitrogen (BUN),11.6,mg/dL,8,20,3,VISIT 2,14,NORMAL
ABC001,ABC001-501-04,439,CA,Calcium,9.69,mg/dL,8.5,10.5,3,VISIT 2,14,NORMAL
ABC001,ABC001-501-04,439,GLUC,Glucose,69.5,mg/dL,60,115,3,VISIT 2,14,NORMAL
ABC001,ABC001-501-04,440,ALB,Albumin,3.3,g/dL,3.4,4.7,4,VISIT 3,27,LOW
ABC001,ABC001-501-04,440,BUN,Blood Urea Nitrogen (BUN),13.9,mg/dL,8,20,4,VISIT 3,27,NORMAL
ABC001,ABC001-501-04,440,CA,Calcium,9.86,mg/dL,8.5,10.5,4,VISIT 3,27,NORMAL
ABC001,ABC001-501-04,440,GLUC,Glucose,105.3,mg/dL,60,115,4,VISIT 3,27,NORMAL
ABC001,ABC001-501-04,441,ALB,Albumin,3.3,g/dL,3.4,4.7,5,VISIT 4,41,LOW
ABC001,ABC001-501-04,441,BUN,Blood Urea Nitrogen (BUN),12.2,mg/dL,8,20,5,VISIT 4,41,NORMAL
ABC001,ABC001-501-04,441,CA,Calcium,9.94,mg/dL,8.5,10.5,5,VISIT 4,41,NORMAL
ABC001,ABC001-501-04,441,GLUC,Glucose,101.5,mg/dL,60,115,5,VISIT 4,41,NORMAL
ABC001,ABC001-501-04,442,ALB,Albumin,4.1,g/dL,3.4,4.7,6,VISIT 5,54,NORMAL
ABC001,ABC001-501-04,442,BUN,Blood Urea Nitrogen (BUN),9.1,mg/dL,8,20,6,VISIT 5,54,NORMAL
ABC001,ABC001-501-04,442,CA,Calcium,9.16,mg/dL,8.5,10.5,6,VISIT 5,54,NORMAL
ABC001,ABC001-501-04,442,GLUC,Glucose,76.1,mg/dL,60,115,6,VISIT 5,54,NORMAL
ABC001,ABC001-501-04,443,ALB,Albumin,4.1,g/dL,3.4,4.7,7,VISIT 6,67,NORMAL
ABC001,ABC001-501-04,443,BUN,Blood Urea Nitrogen (BUN),13.9,mg/dL,8,20,7,VISIT 6,67,NORMAL
ABC001,ABC001-501-04,443,CA,Calcium,9.25,mg/dL,8.5,10.5,7,VISIT 6,67,NORMAL
ABC001,ABC001-501-04,443,GLUC,Glucose,65.0,mg/dL,60,115,7,VISIT 6,67,NORMAL
ABC001,ABC001-501-05,444,ALB,Albumin,4.2,g/dL,3.4,4.7,1,SCREENING,-14,NORMAL
ABC001,ABC001-501-05,444,BUN,Blood Urea Nitrogen (BUN),10.2,mg/dL,8,20,1,SCREENING,-14,NORMAL
ABC001,ABC001-501-05,444,CA,Calcium,9.78,mg/dL,8.5,10.5,1,SCREENING,-14,NORMAL
ABC001,ABC001-501-05,444,GLUC,Glucose,80.3,mg/dL,60,115,1,SCREENING,-14,NORMAL
ABC001,ABC001-501-05,445,ALB,Albumin,4.1,g/dL,3.4,4.7,2,BASELINE,1,NORMAL
ABC001,ABC001-501-05,445,BUN,Blood Urea Nitrogen (BUN),11.0,mg/dL,8,20,2,BASELINE,1,NORMAL
ABC001,ABC001-501-05,445,CA,Calcium,9.08,mg/dL,8.5,10.5,2,BASELINE,1,NORMAL
ABC001,ABC001-501-05,445,GLUC,Glucose,105.0,mg/dL,60,115,2,BASELINE,1,NORMAL
ABC001,ABC001-501-05,446,ALB,Albumin,4.9,g/dL,3.4,4.7,3,VISIT 2,15,HIGH
ABC001,ABC001-501-05,446,BUN,Blood Urea Nitrogen (BUN),10.5,mg/dL,8,20,3,VISIT 2,15,NORMAL
ABC001,ABC001-501-05,446,CA,Calcium,9.85,mg/dL,8.5,10.5,3,VISIT 2,15,NORMAL
ABC001,ABC001-501-05,446,GLUC,Glucose,93.9,mg/dL,60,115,3,VISIT 2,15,NORMAL
ABC001,ABC001-502-01,447,ALB,Albumin,4.3,g/dL,3.4,4.7,1,SCREENING,-14,NORMAL
ABC001,ABC001-502-01,447,BUN,Blood Urea Nitrogen (BUN),7.6,mg/dL,8,20,1,SCREENING,-14,LOW
ABC001,ABC001-502-01,447,CA,Calcium,9.44,mg/dL,8.5,10.5,1,SCREENING,-14,NORMAL
ABC001,ABC001-502-01,447,GLUC,Glucose,80.5,mg/dL,60,115,1,SCREENING,-14,NORMAL
ABC001,ABC001-502-01,448,ALB,Albumin,3.5,g/dL,3.4,4.7,2,BASELINE,1,NORMAL
ABC001,ABC001-502-01,448,BUN,Blood Urea Nitrogen (BUN),13.1,mg/dL,8,20,2,BASELINE,1,NORMAL
ABC001,ABC001-502-01,448,CA,Calcium,9.44,mg/dL,8.5,10.5,2,BASELINE,1,NORMAL
ABC001,ABC001-502-01,448,GLUC,Glucose,69.4,mg/dL,60,115,2,BASELINE,1,NORMAL
ABC001,ABC001-502-01,449,ALB,Albumin,4.2,g/dL,3.4,4.7,3,VISIT 2,15,NORMAL
ABC001,ABC001-502-01,449,BUN,Blood Urea Nitrogen (BUN),18.9,mg/dL,8,20,3,VISIT 2,15,NORMAL
ABC001,ABC001-502-01,449,CA,Calcium,9.04,mg/dL,8.5,10.5,3,VISIT 2,15,NORMAL
ABC001,ABC001-502-01,449,GLUC,Glucose,98.3,mg/dL,60,115,3,VISIT 2,15,NORMAL
ABC001,ABC001-502-01,450,ALB,Albumin,4.5,g/dL,3.4,4.7,4,VISIT 3,28,NORMAL
ABC001,ABC001-502-01,450,BUN,Blood Urea Nitrogen (BUN),11.4,mg/dL,8,20,4,VISIT 3,28,NORMAL
ABC001,ABC001-502-01,450,CA,Calcium,9.97,mg/dL,8.5,10.5,4,VISIT 3,28,NORMAL
ABC001,ABC001-502-01,450,GLUC,Glucose,91.7,mg/dL,60,115,4,VISIT 3,28,NORMAL
ABC001,ABC001-502-01,451,ALB,Albumin,3.9,g/dL,3.4,4.7,5,VISIT 4,42,NORMAL
ABC001,ABC001-502-01,451,BUN,Blood Urea Nitrogen (BUN),15.1,mg/dL,8,20,5,VISIT 4,42,NORMAL
ABC001,ABC001-502-01,451,CA,Calcium,9.55,mg/dL,8.5,10.5,5,VISIT 4,42,NORMAL
ABC001,ABC001-502-01,451,GLUC,Glucose,82.4,mg/dL,60,115,5,VISIT 4,42,NORMAL
ABC001,ABC001-502-01,452,ALB,Albumin,4.0,g/dL,3.4,4.7,6,VISIT 5,56,NORMAL
ABC001,ABC001-502-01,452,BUN,Blood Urea Nitrogen (BUN),14.8,mg/dL,8,20,6,VISIT 5,56,NORMAL
ABC001,ABC001-502-01,452,CA,Calcium,10.0,mg/dL,8.5,10.5,6,VISIT 5,56,NORMAL
ABC001,ABC001-502-01,452,GLUC,Glucose,82.3,mg/dL,60,115,6,VISIT 5,56,NORMAL
ABC001,ABC001-502-01,453,ALB,Albumin,4.2,g/dL,3.4,4.7,7,VISIT 6,70,NORMAL
ABC001,ABC001-502-01,453,BUN,Blood Urea Nitrogen (BUN),13.9,mg/dL,8,20,7,VISIT 6,70,NORMAL
ABC001,ABC001-502-01,453,CA,Calcium,9.29,mg/dL,8.5,10.5,7,VISIT 6,70,NORMAL
ABC001,ABC001-502-01,453,GLUC,Glucose,92.4,mg/dL,60,115,7,VISIT 6,70,NORMAL
ABC001,ABC001-502-02,454,ALB,Albumin,3.9,g/dL,3.4,4.7,1,SCREENING,-11,NORMAL
ABC001,ABC001-502-02,454,BUN,Blood Urea Nitrogen (BUN),9.7,mg/dL,8,20,1,SCREENING,-11,NORMAL
ABC001,ABC001-502-02,454,CA,Calcium,9.45,mg/dL,8.5,10.5,1,SCREENING,-11,NORMAL
ABC001,ABC001-502-02,454,GLUC,Glucose,111.1,mg/dL,60,115,1,SCREENING,-11,NORMAL
ABC001,ABC001-502-02,455,ALB,Albumin,4.0,g/dL,3.4,4.7,2,BASELINE,1,NORMAL
ABC001,ABC001-502-02,455,BUN,Blood Urea Nitrogen (BUN),13.9,mg/dL,8,20,2,BASELINE,1,NORMAL
ABC001,ABC001-502-02,455,CA,Calcium,9.09,mg/dL,8.5,10.5,2,BASELINE,1,NORMAL
ABC001,ABC001-502-02,455,GLUC,Glucose,84.2,mg/dL,60,115,2,BASELINE,1,NORMAL
ABC001,ABC001-502-02,456,ALB,Albumin,4.0,g/dL,3.4,4.7,3,VISIT 2,15,NORMAL
ABC001,ABC001-502-02,456,BUN,Blood Urea Nitrogen (BUN),15.8,mg/dL,8,20,3,VISIT 2,15,NORMAL
ABC001,ABC001-502-02,456,CA,Calcium,10.76,mg/dL,8.5,10.5,3,VISIT 2,15,HIGH
ABC001,ABC001-502-02,456,GLUC,Glucose,93.3,mg/dL,60,115,3,VISIT 2,15,NORMAL
ABC001,ABC001-502-02,457,ALB,Albumin,4.7,g/dL,3.4,4.7,4,VISIT 3,29,NORMAL
ABC001,ABC001-502-02,457,BUN,Blood Urea Nitrogen (BUN),10.4,mg/dL,8,20,4,VISIT 3,29,NORMAL
ABC001,ABC001-502-02,457,CA,Calcium,10.52,mg/dL,8.5,10.5,4,VISIT 3,29,HIGH
ABC001,ABC001-502-02,457,GLUC,Glucose,83.8,mg/dL,60,115,4,VISIT 3,29,NORMAL
ABC001,ABC001-502-02,458,ALB,Albumin,4.0,g/dL,3.4,4.7,5,VISIT 4,43,NORMAL
ABC001,ABC001-502-02,458,BUN,Blood Urea Nitrogen (BUN),14.7,mg/dL,8,20,5,VISIT 4,43,NORMAL
ABC001,ABC001-502-02,458,CA,Calcium,10.47,mg/dL,8.5,10.5,5,VISIT 4,43,NORMAL
ABC001,ABC001-502-02,458,GLUC,Glucose,104.1,mg/dL,60,115,5,VISIT 4,43,NORMAL
ABC001,ABC001-502-02,459,ALB,Albumin,3.9,g/dL,3.4,4.7,6,VISIT 5,57,NORMAL
ABC001,ABC001-502-02,459,BUN,Blood Urea Nitrogen (BUN),13.4,mg/dL,8,20,6,VISIT 5,57,NORMAL
ABC001,ABC001-502-02,459,CA,Calcium,8.82,mg/dL,8.5,10.5,6,VISIT 5,57,NORMAL
ABC001,ABC001-502-02,459,GLUC,Glucose,88.9,mg/dL,60,115,6,VISIT 5,57,NORMAL
ABC001,ABC001-502-02,460,ALB,Albumin,4.3,g/dL,3.4,4.7,7,VISIT 6,70,NORMAL
ABC001,ABC001-502-02,460,BUN,Blood Urea Nitrogen (BUN),10.2,mg/dL,8,20,7,VISIT 6,70,NORMAL
ABC001,ABC001-502-02,460,CA,Calcium,9.65,mg/dL,8.5,10.5,7,VISIT 6,70,NORMAL
ABC001,ABC001-502-02,460,GLUC,Glucose,92.7,mg/dL,60,115,7,VISIT 6,70,NORMAL
ABC001,ABC001-502-03,461,ALB,Albumin,3.9,g/dL,3.4,4.7,1,SCREENING,-15,NORMAL
ABC001,ABC001-502-03,461,BUN,Blood Urea Nitrogen (BUN),13.9,mg/dL,8,20,1,SCREENING,-15,NORMAL
ABC001,ABC001-502-03,461,CA,Calcium,9.68,mg/dL,8.5,10.5,1,SCREENING,-15,NORMAL
ABC001,ABC001-502-03,461,GLUC,Glucose,84.9,mg/dL,60,115,1,SCREENING,-15,NORMAL
ABC001,ABC001-502-03,462,ALB,Albumin,3.8,g/dL,3.4,4.7,2,BASELINE,1,NORMAL
ABC001,ABC001-502-03,462,BUN,Blood Urea Nitrogen (BUN),15.4,mg/dL,8,20,2,BASELINE,1,NORMAL
ABC001,ABC001-502-03,462,CA,Calcium,9.45,mg/dL,8.5,10.5,2,BASELINE,1,NORMAL
ABC001,ABC001-502-03,462,GLUC,Glucose,92.4,mg/dL,60,115,2,BASELINE,1,NORMAL
ABC001,ABC001-502-03,463,ALB,Albumin,4.6,g/dL,3.4,4.7,3,VISIT 2,16,NORMAL
ABC001,ABC001-502-03,463,BUN,Blood Urea Nitrogen (BUN),12.4,mg/dL,8,20,3,VISIT 2,16,NORMAL
ABC001,ABC001-502-03,463,CA,Calcium,9.94,mg/dL,8.5,10.5,3,VISIT 2,16,NORMAL
ABC001,ABC001-502-03,463,GLUC,Glucose,96.1,mg/dL,60,115,3,VISIT 2,16,NORMAL
ABC001,ABC001-502-04,464,ALB,Albumin,4.3,g/dL,3.4,4.7,1,SCREENING,-15,NORMAL
ABC001,ABC001-502-04,464,BUN,Blood Urea Nitrogen (BUN),18.2,mg/dL,8,20,1,SCREENING,-15,NORMAL
ABC001,ABC001-502-04,464,CA,Calcium,9.88,mg/dL,8.5,10.5,1,SCREENING,-15,NORMAL
ABC001,ABC001-502-04,464,GLUC,Glucose,79.3,mg/dL,60,115,1,SCREENING,-15,NORMAL
ABC001,ABC001-502-04,465,ALB,Albumin,4.0,g/dL,3.4,4.7,2,BASELINE,1,NORMAL
ABC001,ABC001-502-04,465,BUN,Blood Urea Nitrogen (BUN),16.7,mg/dL,8,20,2,BASELINE,1,NORMAL
ABC001,ABC001-502-04,465,CA,Calcium,9.04,mg/dL,8.5,10.5,2,BASELINE,1,NORMAL
ABC001,ABC001-502-04,465,GLUC,Glucose,81.9,mg/dL,60,115,2,BASELINE,1,NORMAL
ABC001,ABC001-502-05,466,ALB,Albumin,4.3,g/dL,3.4,4.7,1,SCREENING,-13,NORMAL
ABC001,ABC001-502-05,466,BUN,Blood Urea Nitrogen (BUN),10.0,mg/dL,8,20,1,SCREENING,-13,NORMAL
ABC001,ABC001-502-05,466,CA,Calcium,9.54,mg/dL,8.5,10.5,1,SCREENING,-13,NORMAL
ABC001,ABC001-502-05,466,GLUC,Glucose,93.6,mg/dL,60,115,1,SCREENING,-13,NORMAL
ABC001,ABC001-502-05,467,ALB,Albumin,3.9,g/dL,3.4,4.7,2,BASELINE,1,NORMAL
ABC001,ABC001-502-05,467,BUN,Blood Urea Nitrogen (BUN),12.9,mg/dL,8,20,2,BASELINE,1,NORMAL
ABC001,ABC001-502-05,467,CA,Calcium,9.21,mg/dL,8.5,10.5,2,BASELINE,1,NORMAL
ABC001,ABC001-502-05,467,GLUC,Glucose,107.5,mg/dL,60,115,2,BASELINE,1,NORMAL
ABC001,ABC001-502-05,468,ALB,Albumin,4.0,g/dL,3.4,4.7,3,VISIT 2,13,NORMAL
ABC001,ABC001-502-05,468,BUN,Blood Urea Nitrogen (BUN),16.0,mg/dL,8,20,3,VISIT 2,13,NORMAL
ABC001,ABC001-502-05,468,CA,Calcium,8.8,mg/dL,8.5,10.5,3,VISIT 2,13,NORMAL
ABC001,ABC001-502-05,468,GLUC,Glucose,67.1,mg/dL,60,115,3,VISIT 2,13,NORMAL
ABC001,ABC001-502-05,469,ALB,Albumin,3.6,g/dL,3.4,4.7,4,VISIT 3,26,NORMAL
ABC001,ABC001-502-05,469,BUN,Blood Urea Nitrogen (BUN),19.0,mg/dL,8,20,4,VISIT 3,26,NORMAL
ABC001,ABC001-502-05,469,CA,Calcium,9.61,mg/dL,8.5,10.5,4,VISIT 3,26,NORMAL
ABC001,ABC001-502-05,469,GLUC,Glucose,69.3,mg/dL,60,115,4,VISIT 3,26,NORMAL
ABC001,ABC001-502-05,470,ALB,Albumin,3.3,g/dL,3.4,4.7,5,VISIT 4,40,LOW
ABC001,ABC001-502-05,470,BUN,Blood Urea Nitrogen (BUN),7.9,mg/dL,8,20,5,VISIT 4,40,LOW
ABC001,ABC001-502-05,470,CA,Calcium,9.07,mg/dL,8.5,10.5,5,VISIT 4,40,NORMAL
ABC001,ABC001-502-05,470,GLUC,Glucose,114.8,mg/dL,60,115,5,VISIT 4,40,NORMAL
ABC001,ABC001-502-05,471,ALB,Albumin,3.9,g/dL,3.4,4.7,6,VISIT 5,54,NORMAL
ABC001,ABC001-502-05,471,BUN,Blood Urea Nitrogen (BUN),9.7,mg/dL,8,20,6,VISIT 5,54,NORMAL
ABC001,ABC001-502-05,471,CA,Calcium,9.42,mg/dL,8.5,10.5,6,VISIT 5,54,NORMAL
ABC001,ABC001-502-05,471,GLUC,Glucose,90.7,mg/dL,60,115,6,VISIT 5,54,NORMAL
ABC001,ABC001-502-05,472,ALB,Albumin,4.2,g/dL,3.4,4.7,7,VISIT 6,68,NORMAL
ABC001,ABC001-502-05,472,BUN,Blood Urea Nitrogen (BUN),14.9,mg/dL,8,20,7,VISIT 6,68,NORMAL
ABC001,ABC001-502-05,472,CA,Calcium,9.63,mg/dL,8.5,10.5,7,VISIT 6,68,NORMAL
ABC001,ABC001-502-05,472,GLUC,Glucose,71.8,mg/dL,60,115,7,VISIT 6,68,NORMAL
ABC001,ABC001-502-06,473,ALB,Albumin,3.3,g/dL,3.4,4.7,1,SCREENING,-14,LOW
ABC001,ABC001-502-06,473,BUN,Blood Urea Nitrogen (BUN),11.9,mg/dL,8,20,1,SCREENING,-14,NORMAL
ABC001,ABC001-502-06,473,CA,Calcium,8.42,mg/dL,8.5,10.5,1,SCREENING,-14,LOW
ABC001,ABC001-502-06,473,GLUC,Glucose,88.8,mg/dL,60,115,1,SCREENING,-14,NORMAL
ABC001,ABC001-502-06,474,ALB,Albumin,4.2,g/dL,3.4,4.7,2,BASELINE,1,NORMAL
ABC001,ABC001-502-06,474,BUN,Blood Urea Nitrogen (BUN),12.8,mg/dL,8,20,2,BASELINE,1,NORMAL
ABC001,ABC001-502-06,474,CA,Calcium,8.88,mg/dL,8.5,10.5,2,BASELINE,1,NORMAL
ABC001,ABC001-502-06,474,GLUC,Glucose,85.7,mg/dL,60,115,2,BASELINE,1,NORMAL
ABC001,ABC001-502-06,475,ALB,Albumin,3.7,g/dL,3.4,4.7,3,VISIT 2,15,NORMAL
ABC001,ABC001-502-06,475,BUN,Blood Urea Nitrogen (BUN),11.4,mg/dL,8,20,3,VISIT 2,15,NORMAL
ABC001,ABC001-502-06,475,CA,Calcium,9.13,mg/dL,8.5,10.5,3,VISIT 2,15,NORMAL
ABC001,ABC001-502-06,475,GLUC,Glucose,75.6,mg/dL,60,115,3,VISIT 2,15,NORMAL
ABC001,ABC001-502-06,476,ALB,Albumin,3.9,g/dL,3.4,4.7,4,VISIT 3,27,NORMAL
ABC001,ABC001-502-06,476,BUN,Blood Urea Nitrogen (BUN),9.9,mg/dL,8,20,4,VISIT 3,27,NORMAL
ABC001,ABC001-502-06,476,CA,Calcium,9.58,mg/dL,8.5,10.5,4,VISIT 3,27,NORMAL
ABC001,ABC001-502-06,476,GLUC,Glucose,85.3,mg/dL,60,115,4,VISIT 3,27,NORMAL
ABC001,ABC001-502-07,477,ALB,Albumin,4.2,g/dL,3.4,4.7,1,SCREENING,-14,NORMAL
ABC001,ABC001-502-07,477,BUN,Blood Urea Nitrogen (BUN),15.2,mg/dL,8,20,1,SCREENING,-14,NORMAL
ABC001,ABC001-502-07,477,CA,Calcium,9.04,mg/dL,8.5,10.5,1,SCREENING,-14,NORMAL
ABC001,ABC001-502-07,477,GLUC,Glucose,78.6,mg/dL,60,115,1,SCREENING,-14,NORMAL
ABC001,ABC001-502-07,478,ALB,Albumin,4.5,g/dL,3.4,4.7,2,BASELINE,1,NORMAL
ABC001,ABC001-502-07,478,BUN,Blood Urea Nitrogen (BUN),14.2,mg/dL,8,20,2,BASELINE,1,NORMAL
ABC001,ABC001-502-07,478,CA,Calcium,9.0,mg/dL,8.5,10.5,2,BASELINE,1,NORMAL
ABC001,ABC001-502-07,478,GLUC,Glucose,80.5,mg/dL,60,115,2,BASELINE,1,NORMAL
ABC001,ABC001-502-07,479,ALB,Albumin,4.0,g/dL,3.4,4.7,3,VISIT 2,15,NORMAL
ABC001,ABC001-502-07,479,BUN,Blood Urea Nitrogen (BUN),11.0,mg/dL,8,20,3,VISIT 2,15,NORMAL
ABC001,ABC001-502-07,479,CA,Calcium,9.03,mg/dL,8.5,10.5,3,VISIT 2,15,NORMAL
ABC001,ABC001-502-07,479,GLUC,Glucose,79.4,mg/dL,60,115,3,VISIT 2,15,NORMAL
ABC001,ABC001-502-07,480,ALB,Albumin,4.2,g/dL,3.4,4.7,4,VISIT 3,27,NORMAL
ABC001,ABC001-502-07,480,BUN,Blood Urea Nitrogen (BUN),17.7,mg/dL,8,20,4,VISIT 3,27,NORMAL
ABC001,ABC001-502-07,480,CA,Calcium,9.84,mg/dL,8.5,10.5,4,VISIT 3,27,NORMAL
ABC001,ABC001-502-07,480,GLUC,Glucose,71.7,mg/dL,60,115,4,VISIT 3,27,NORMAL
ABC001,ABC001-502-08,481,ALB,Albumin,3.7,g/dL,3.4,4.7,1,SCREENING,-14,NORMAL
ABC001,ABC001-502-08,481,BUN,Blood Urea Nitrogen (BUN),14.1,mg/dL,8,20,1,SCREENING,-14,NORMAL
ABC001,ABC001-502-08,481,CA,Calcium,10.46,mg/dL,8.5,10.5,1,SCREENING,-14,NORMAL
ABC001,ABC001-502-08,481,GLUC,Glucose,91.4,mg/dL,60,115,1,SCREENING,-14,NORMAL
ABC001,ABC001-502-08,482,ALB,Albumin,3.8,g/dL,3.4,4.7,2,BASELINE,1,NORMAL
ABC001,ABC001-502-08,482,BUN,Blood Urea Nitrogen (BUN),16.0,mg/dL,8,20,2,BASELINE,1,NORMAL
ABC001,ABC001-502-08,482,CA,Calcium,9.5,mg/dL,8.5,10.5,2,BASELINE,1,NORMAL
ABC001,ABC001-502-08,482,GLUC,Glucose,88.7,mg/dL,60,115,2,BASELINE,1,NORMAL
ABC001,ABC001-502-08,483,ALB,Albumin,4.7,g/dL,3.4,4.7,3,VISIT 2,16,NORMAL
ABC001,ABC001-502-08,483,BUN,Blood Urea Nitrogen (BUN),14.7,mg/dL,8,20,3,VISIT 2,16,NORMAL
ABC001,ABC001-502-08,483,CA,Calcium,9.32,mg/dL,8.5,10.5,3,VISIT 2,16,NORMAL
ABC001,ABC001-502-08,483,GLUC,Glucose,73.0,mg/dL,60,115,3,VISIT 2,16,NORMAL
ABC001,ABC001-502-09,484,ALB,Albumin,4.5,g/dL,3.4,4.7,1,SCREENING,-14,NORMAL
ABC001,ABC001-502-09,484,BUN,Blood Urea Nitrogen (BUN),16.7,mg/dL,8,20,1,SCREENING,-14,NORMAL
ABC001,ABC001-502-09,484,CA,Calcium,9.57,mg/dL,8.5,10.5,1,SCREENING,-14,NORMAL
ABC001,ABC001-502-09,484,GLUC,Glucose,61.5,mg/dL,60,115,1,SCREENING,-14,NORMAL
ABC001,ABC001-502-09,485,ALB,Albumin,4.1,g/dL,3.4,4.7,2,BASELINE,1,NORMAL
ABC001,ABC001-502-09,485,BUN,Blood Urea Nitrogen (BUN),14.3,mg/dL,8,20,2,BASELINE,1,NORMAL
ABC001,ABC001-502-09,485,CA,Calcium,10.39,mg/dL,8.5,10.5,2,BASELINE,1,NORMAL
ABC001,ABC001-502-09,485,GLUC,Glucose,70.9,mg/dL,60,115,2,BASELINE,1,NORMAL
ABC001,ABC001-502-09,486,ALB,Albumin,4.2,g/dL,3.4,4.7,3,VISIT 2,16,NORMAL
ABC001,ABC001-502-09,486,BUN,Blood Urea Nitrogen (BUN),15.6,mg/dL,8,20,3,VISIT 2,16,NORMAL
ABC001,ABC001-502-09,486,CA,Calcium,9.94,mg/dL,8.5,10.5,3,VISIT 2,16,NORMAL
ABC001,ABC001-502-09,486,GLUC,Glucose,89.3,mg/dL,60,115,3,VISIT 2,16,NORMAL
ABC001,ABC001-502-09,487,ALB,Albumin,4.1,g/dL,3.4,4.7,4,VISIT 3,29,NORMAL
ABC001,ABC001-502-09,487,BUN,Blood Urea Nitrogen (BUN),18.7,mg/dL,8,20,4,VISIT 3,29,NORMAL
ABC001,ABC001-502-09,487,CA,Calcium,9.63,mg/dL,8.5,10.5,4,VISIT 3,29,NORMAL
ABC001,ABC001-502-09,487,GLUC,Glucose,98.8,mg/dL,60,115,4,VISIT 3,29,NORMAL
ABC001,ABC001-502-09,488,ALB,Albumin,3.7,g/dL,3.4,4.7,5,VISIT 4,42,NORMAL
ABC001,ABC001-502-09,488,BUN,Blood Urea Nitrogen (BUN),16.3,mg/dL,8,20,5,VISIT 4,42,NORMAL
ABC001,ABC001-502-09,488,CA,Calcium,8.58,mg/dL,8.5,10.5,5,VISIT 4,42,NORMAL
ABC001,ABC001-502-09,488,GLUC,Glucose,90.9,mg/dL,60,115,5,VISIT 4,42,NORMAL
ABC001,ABC001-502-09,489,ALB,Albumin,3.4,g/dL,3.4,4.7,6,VISIT 5,55,NORMAL
ABC001,ABC001-502-09,489,BUN,Blood Urea Nitrogen (BUN),17.8,mg/dL,8,20,6,VISIT 5,55,NORMAL
ABC001,ABC001-502-09,489,CA,Calcium,9.02,mg/dL,8.5,10.5,6,VISIT 5,55,NORMAL
ABC001,ABC001-502-09,489,GLUC,Glucose,65.5,mg/dL,60,115,6,VISIT 5,55,NORMAL
ABC001,ABC001-502-09,490,ALB,Albumin,3.5,g/dL,3.4,4.7,7,VISIT 6,69,NORMAL
ABC001,ABC001-502-09,490,BUN,Blood Urea Nitrogen (BUN),8.7,mg/dL,8,20,7,VISIT 6,69,NORMAL
ABC001,ABC001-502-09,490,CA,Calcium,9.81,mg/dL,8.5,10.5,7,VISIT 6,69,NORMAL
ABC001,ABC001-502-09,490,GLUC,Glucose,92.8,mg/dL,60,115,7,VISIT 6,69,NORMAL
ABC001,ABC001-503-01,491,ALB,Albumin,4.5,g/dL,3.4,4.7,1,SCREENING,-14,NORMAL
ABC001,ABC001-503-01,491,BUN,Blood Urea Nitrogen (BUN),17.2,mg/dL,8,20,1,SCREENING,-14,NORMAL
ABC001,ABC001-503-01,491,CA,Calcium,9.12,mg/dL,8.5,10.5,1,SCREENING,-14,NORMAL
ABC001,ABC001-503-01,491,GLUC,Glucose,74.3,mg/dL,60,115,1,SCREENING,-14,NORMAL
ABC001,ABC001-503-01,492,ALB,Albumin,3.5,g/dL,3.4,4.7,2,BASELINE,1,NORMAL
ABC001,ABC001-503-01,492,BUN,Blood Urea Nitrogen (BUN),12.9,mg/dL,8,20,2,BASELINE,1,NORMAL
ABC001,ABC001-503-01,492,CA,Calcium,9.15,mg/dL,8.5,10.5,2,BASELINE,1,NORMAL
ABC001,ABC001-503-01,492,GLUC,Glucose,101.0,mg/dL,60,115,2,BASELINE,1,NORMAL
ABC001,ABC001-503-01,493,ALB,Albumin,4.0,g/dL,3.4,4.7,3,VISIT 2,14,NORMAL
ABC001,ABC001-503-01,493,BUN,Blood Urea Nitrogen (BUN),11.3,mg/dL,8,20,3,VISIT 2,14,NORMAL
ABC001,ABC001-503-01,493,CA,Calcium,9.96,mg/dL,8.5,10.5,3,VISIT 2,14,NORMAL
ABC001,ABC001-503-01,493,GLUC,Glucose,99.9,mg/dL,60,115,3,VISIT 2,14,NORMAL
ABC001,ABC001-503-01,494,ALB,Albumin,4.0,g/dL,3.4,4.7,4,VISIT 3,28,NORMAL
ABC001,ABC001-503-01,494,BUN,Blood Urea Nitrogen (BUN),11.8,mg/dL,8,20,4,VISIT 3,28,NORMAL
ABC001,ABC001-503-01,494,CA,Calcium,10.18,mg/dL,8.5,10.5,4,VISIT 3,28,NORMAL
ABC001,ABC001-503-01,494,GLUC,Glucose,86.0,mg/dL,60,115,4,VISIT 3,28,NORMAL
ABC001,ABC001-503-02,495,ALB,Albumin,3.7,g/dL,3.4,4.7,1,SCREENING,-15,NORMAL
ABC001,ABC001-503-02,495,BUN,Blood Urea Nitrogen (BUN),13.2,mg/dL,8,20,1,SCREENING,-15,NORMAL
ABC001,ABC001-503-02,495,CA,Calcium,10.48,mg/dL,8.5,10.5,1,SCREENING,-15,NORMAL
ABC001,ABC001-503-02,495,GLUC,Glucose,83.2,mg/dL,60,115,1,SCREENING,-15,NORMAL
ABC001,ABC001-503-02,496,ALB,Albumin,3.6,g/dL,3.4,4.7,2,BASELINE,1,NORMAL
ABC001,ABC001-503-02,496,BUN,Blood Urea Nitrogen (BUN),16.5,mg/dL,8,20,2,BASELINE,1,NORMAL
ABC001,ABC001-503-02,496,CA,Calcium,8.69,mg/dL,8.5,10.5,2,BASELINE,1,NORMAL
ABC001,ABC001-503-02,496,GLUC,Glucose,86.9,mg/dL,60,115,2,BASELINE,1,NORMAL
ABC001,ABC001-503-02,497,ALB,Albumin,4.7,g/dL,3.4,4.7,3,VISIT 2,14,NORMAL
ABC001,ABC001-503-02,497,BUN,Blood Urea Nitrogen (BUN),9.0,mg/dL,8,20,3,VISIT 2,14,NORMAL
ABC001,ABC001-503-02,497,CA,Calcium,10.22,mg/dL,8.5,10.5,3,VISIT 2,14,NORMAL
ABC001,ABC001-503-02,497,GLUC,Glucose,109.4,mg/dL,60,115,3,VISIT 2,14,NORMAL
ABC001,ABC001-503-02,498,ALB,Albumin,4.5,g/dL,3.4,4.7,4,VISIT 3,27,NORMAL
ABC001,ABC001-503-02,498,BUN,Blood Urea Nitrogen (BUN),9.9,mg/dL,8,20,4,VISIT 3,27,NORMAL
ABC001,ABC001-503-02,498,CA,Calcium,9.09,mg/dL,8.5,10.5,4,VISIT 3,27,NORMAL
ABC001,ABC001-503-02,498,GLUC,Glucose,95.1,mg/dL,60,115,4,VISIT 3,27,NORMAL
ABC001,ABC001-503-02,499,ALB,Albumin,3.6,g/dL,3.4,4.7,5,VISIT 4,42,NORMAL
ABC001,ABC001-503-02,499,BUN,Blood Urea Nitrogen (BUN),13.4,mg/dL,8,20,5,VISIT 4,42,NORMAL
ABC001,ABC001-503-02,499,CA,Calcium,9.04,mg/dL,8.5,10.5,5,VISIT 4,42,NORMAL
ABC001,ABC001-503-02,499,GLUC,Glucose,109.2,mg/dL,60,115,5,VISIT 4,42,NORMAL
ABC001,ABC001-503-02,500,ALB,Albumin,4.1,g/dL,3.4,4.7,6,VISIT 5,56,NORMAL
ABC001,ABC001-503-02,500,BUN,Blood Urea Nitrogen (BUN),15.0,mg/dL,8,20,6,VISIT 5,56,NORMAL
ABC001,ABC001-503-02,500,CA,Calcium,9.28,mg/dL,8.5,10.5,6,VISIT 5,56,NORMAL
ABC001,ABC001-503-02,500,GLUC,Glucose,79.9,mg/dL,60,115,6,VISIT 5,56,NORMAL
ABC001,ABC001-503-02,501,ALB,Albumin,4.1,g/dL,3.4,4.7,7,VISIT 6,67,NORMAL
ABC001,ABC001-503-02,501,BUN,Blood Urea Nitrogen (BUN),15.9,mg/dL,8,20,7,VISIT 6,67,NORMAL
ABC001,ABC001-503-02,501,CA,Calcium,9.97,mg/dL,8.5,10.5,7,VISIT 6,67,NORMAL
ABC001,ABC001-503-02,501,GLUC,Glucose,95.7,mg/dL,60,115,7,VISIT 6,67,NORMAL
ABC001,ABC001-503-03,502,ALB,Albumin,4.0,g/dL,3.4,4.7,1,SCREENING,-13,NORMAL
ABC001,ABC001-503-03,502,BUN,Blood Urea Nitrogen (BUN),15.1,mg/dL,8,20,1,SCREENING,-13,NORMAL
ABC001,ABC001-503-03,502,CA,Calcium,9.36,mg/dL,8.5,10.5,1,SCREENING,-13,NORMAL
ABC001,ABC001-503-03,502,GLUC,Glucose,92.7,mg/dL,60,115,1,SCREENING,-13,NORMAL
ABC001,ABC001-503-03,503,ALB,Albumin,3.7,g/dL,3.4,4.7,2,BASELINE,1,NORMAL
ABC001,ABC001-503-03,503,BUN,Blood Urea Nitrogen (BUN),19.6,mg/dL,8,20,2,BASELINE,1,NORMAL
ABC001,ABC001-503-03,503,CA,Calcium,9.7,mg/dL,8.5,10.5,2,BASELINE,1,NORMAL
ABC001,ABC001-503-03,503,GLUC,Glucose,92.8,mg/dL,60,115,2,BASELINE,1,NORMAL
ABC001,ABC001-503-04,504,ALB,Albumin,4.3,g/dL,3.4,4.7,1,SCREENING,-14,NORMAL
ABC001,ABC001-503-04,504,BUN,Blood Urea Nitrogen (BUN),9.2,mg/dL,8,20,1,SCREENING,-14,NORMAL
ABC001,ABC001-503-04,504,CA,Calcium,10.22,mg/dL,8.5,10.5,1,SCREENING,-14,NORMAL
ABC001,ABC001-503-04,504,GLUC,Glucose,70.0,mg/dL,60,115,1,SCREENING,-14,NORMAL
ABC001,ABC001-503-04,505,ALB,Albumin,4.3,g/dL,3.4,4.7,2,BASELINE,1,NORMAL
ABC001,ABC001-503-04,505,BUN,Blood Urea Nitrogen (BUN),16.1,mg/dL,8,20,2,BASELINE,1,NORMAL
ABC001,ABC001-503-04,505,CA,Calcium,9.61,mg/dL,8.5,10.5,2,BASELINE,1,NORMAL
ABC001,ABC001-503-04,505,GLUC,Glucose,65.8,mg/dL,60,115,2,BASELINE,1,NORMAL
ABC001,ABC001-503-04,506,ALB,Albumin,4.1,g/dL,3.4,4.7,3,VISIT 2,15,NORMAL
ABC001,ABC001-503-04,506,BUN,Blood Urea Nitrogen (BUN),14.7,mg/dL,8,20,3,VISIT 2,15,NORMAL
ABC001,ABC001-503-04,506,CA,Calcium,10.4,mg/dL,8.5,10.5,3,VISIT 2,15,NORMAL
ABC001,ABC001-503-04,506,GLUC,Glucose,80.7,mg/dL,60,115,3,VISIT 2,15,NORMAL
