---
ABC1-101-01:
- !ruby/object:SdtmAe
  studyid: ABC1
  usubjid: ABC1-101-01
  aeterm: Optio eius repellendus non placeat quod.
  aedecod: AE Decode 3
  aebodsys: Body System 7
  aestdtc: 2014-05-04
  aeseq: 1
- !ruby/object:SdtmAe
  studyid: ABC1
  usubjid: ABC1-101-01
  aeterm: Architecto blanditiis.
  aedecod: AE Decode 7
  aebodsys: Body System 5
  aestdtc: 2014-05-12
  aeseq: 2
ABC1-101-02:
- !ruby/object:SdtmAe
  studyid: ABC1
  usubjid: ABC1-101-02
  aeterm: Cumque labore doloribus sed repellendus dicta.
  aedecod: AE Decode 7
  aebodsys: Body System 1
  aestdtc: 2014-08-08
  aeseq: 3
  aeendtc: 2014-09-18
ABC1-101-03: []
ABC1-101-04: []
ABC1-101-05:
- !ruby/object:SdtmAe
  studyid: ABC1
  usubjid: ABC1-101-05
  aeterm: Labore sapiente id.
  aedecod: AE Decode 9
  aebodsys: Body System 8
  aestdtc: 2014-07-15
  aeseq: 4
  aeendtc: 2014-07-16
ABC1-101-06: []
ABC1-101-07: []
ABC1-101-08:
- !ruby/object:SdtmAe
  studyid: ABC1
  usubjid: ABC1-101-08
  aeterm: Modi molestias ea.
  aedecod: AE Decode 7
  aebodsys: Body System 2
  aestdtc: 2014-03-30
  aeseq: 5
  aeendtc: 2014-04-08
ABC1-101-09:
- !ruby/object:SdtmAe
  studyid: ABC1
  usubjid: ABC1-101-09
  aeterm: Adipisci earum et repellat dolorem autem.
  aedecod: AE Decode 4
  aebodsys: Body System 10
  aestdtc: 2014-08-13
  aeseq: 6
- !ruby/object:SdtmAe
  studyid: ABC1
  usubjid: ABC1-101-09
  aeterm: Corrupti accusantium itaque eius.
  aedecod: AE Decode 7
  aebodsys: Body System 10
  aestdtc: 2014-07-13
  aeseq: 7
ABC1-101-10: []
ABC1-102-01:
- !ruby/object:SdtmAe
  studyid: ABC1
  usubjid: ABC1-102-01
  aeterm: Et in impedit provident.
  aedecod: AE Decode 8
  aebodsys: Body System 8
  aestdtc: 2014-08-20
  aeseq: 8
  aeendtc: 2014-08-20
- !ruby/object:SdtmAe
  studyid: ABC1
  usubjid: ABC1-102-01
  aeterm: Et a porro dolor sit neque dolores.
  aedecod: AE Decode 1
  aebodsys: Body System 8
  aestdtc: 2014-08-20
  aeseq: 9
- !ruby/object:SdtmAe
  studyid: ABC1
  usubjid: ABC1-102-01
  aeterm: Eos possimus.
  aedecod: AE Decode 2
  aebodsys: Body System 9
  aestdtc: 2014-08-20
  aeseq: 10
  aeendtc: 2014-08-20
- !ruby/object:SdtmAe
  studyid: ABC1
  usubjid: ABC1-102-01
  aeterm: Consequatur non et totam id vel.
  aedecod: AE Decode 10
  aebodsys: Body System 5
  aestdtc: 2014-08-20
  aeseq: 11
- !ruby/object:SdtmAe
  studyid: ABC1
  usubjid: ABC1-102-01
  aeterm: Natus recusandae quia commodi autem consequatur unde.
  aedecod: AE Decode 9
  aebodsys: Body System 3
  aestdtc: 2014-08-20
  aeseq: 12
  aeendtc: 2014-08-20
- !ruby/object:SdtmAe
  studyid: ABC1
  usubjid: ABC1-102-01
  aeterm: Est aut provident rerum.
  aedecod: AE Decode 8
  aebodsys: Body System 9
  aestdtc: 2014-08-20
  aeseq: 13
- !ruby/object:SdtmAe
  studyid: ABC1
  usubjid: ABC1-102-01
  aeterm: Harum unde.
  aedecod: AE Decode 7
  aebodsys: Body System 5
  aestdtc: 2014-08-20
  aeseq: 14
- !ruby/object:SdtmAe
  studyid: ABC1
  usubjid: ABC1-102-01
  aeterm: Qui perspiciatis at necessitatibus.
  aedecod: AE Decode 1
  aebodsys: Body System 4
  aestdtc: 2014-08-20
  aeseq: 15
ABC1-102-02: []
ABC1-102-03: []
ABC1-102-04: []
ABC1-102-05: []
ABC1-102-06: []
ABC1-102-07: []
ABC1-102-08: []
ABC1-102-09: []
ABC1-102-10:
- !ruby/object:SdtmAe
  studyid: ABC1
  usubjid: ABC1-102-10
  aeterm: Et voluptas dicta quidem quibusdam molestias architecto.
  aedecod: AE Decode 6
  aebodsys: Body System 3
  aestdtc: 2014-04-11
  aeseq: 16
- !ruby/object:SdtmAe
  studyid: ABC1
  usubjid: ABC1-102-10
  aeterm: Cupiditate qui in id adipisci debitis.
  aedecod: AE Decode 2
  aebodsys: Body System 4
  aestdtc: 2014-04-11
  aeseq: 17
  aeendtc: 2014-04-11
- !ruby/object:SdtmAe
  studyid: ABC1
  usubjid: ABC1-102-10
  aeterm: Ad ipsam at accusamus.
  aedecod: AE Decode 7
  aebodsys: Body System 9
  aestdtc: 2014-04-11
  aeseq: 18
- !ruby/object:SdtmAe
  studyid: ABC1
  usubjid: ABC1-102-10
  aeterm: Eaque neque vero ea est nihil.
  aedecod: AE Decode 9
  aebodsys: Body System 7
  aestdtc: 2014-04-11
  aeseq: 19
ABC1-102-11: []
ABC1-102-12:
- !ruby/object:SdtmAe
  studyid: ABC1
  usubjid: ABC1-102-12
  aeterm: Doloribus dolore fuga autem totam.
  aedecod: AE Decode 3
  aebodsys: Body System 5
  aestdtc: 2014-05-16
  aeseq: 20
  aeendtc: 2014-05-29
ABC1-102-13: []
ABC1-102-14:
- !ruby/object:SdtmAe
  studyid: ABC1
  usubjid: ABC1-102-14
  aeterm: Perferendis numquam alias voluptatibus nihil quos.
  aedecod: AE Decode 4
  aebodsys: Body System 6
  aestdtc: 2014-08-11
  aeseq: 21
- !ruby/object:SdtmAe
  studyid: ABC1
  usubjid: ABC1-102-14
  aeterm: Voluptas voluptatem voluptas eum autem nesciunt ut.
  aedecod: AE Decode 3
  aebodsys: Body System 5
  aestdtc: 2014-08-09
  aeseq: 22
- !ruby/object:SdtmAe
  studyid: ABC1
  usubjid: ABC1-102-14
  aeterm: Quidem harum.
  aedecod: AE Decode 7
  aebodsys: Body System 5
  aestdtc: 2014-08-16
  aeseq: 23
- !ruby/object:SdtmAe
  studyid: ABC1
  usubjid: ABC1-102-14
  aeterm: Accusantium aspernatur.
  aedecod: AE Decode 2
  aebodsys: Body System 7
  aestdtc: 2014-08-09
  aeseq: 24
  aeendtc: 2014-08-22
- !ruby/object:SdtmAe
  studyid: ABC1
  usubjid: ABC1-102-14
  aeterm: Ullam sit autem cupiditate.
  aedecod: AE Decode 3
  aebodsys: Body System 5
  aestdtc: 2014-08-23
  aeseq: 25
  aeendtc: 2014-08-24
- !ruby/object:SdtmAe
  studyid: ABC1
  usubjid: ABC1-102-14
  aeterm: Et excepturi.
  aedecod: AE Decode 8
  aebodsys: Body System 10
  aestdtc: 2014-08-22
  aeseq: 26
  aeendtc: 2014-08-23
- !ruby/object:SdtmAe
  studyid: ABC1
  usubjid: ABC1-102-14
  aeterm: Reprehenderit nulla eum.
  aedecod: AE Decode 4
  aebodsys: Body System 5
  aestdtc: 2014-08-04
  aeseq: 27
- !ruby/object:SdtmAe
  studyid: ABC1
  usubjid: ABC1-102-14
  aeterm: Aut blanditiis commodi non.
  aedecod: AE Decode 4
  aebodsys: Body System 4
  aestdtc: 2014-08-24
  aeseq: 28
  aeendtc: 2014-08-24
ABC1-103-01: []
ABC1-103-02: []
ABC1-103-03: []
ABC1-103-04: []
ABC1-103-05: []
ABC1-201-01: []
ABC1-201-02: []
ABC1-201-03: []
ABC1-201-04: []
ABC1-201-05:
- !ruby/object:SdtmAe
  studyid: ABC1
  usubjid: ABC1-201-05
  aeterm: Quis ab ut molestias.
  aedecod: AE Decode 10
  aebodsys: Body System 9
  aestdtc: 2014-04-17
  aeseq: 29
  aeendtc: 2014-04-23
- !ruby/object:SdtmAe
  studyid: ABC1
  usubjid: ABC1-201-05
  aeterm: Tenetur deserunt optio delectus voluptatibus qui.
  aedecod: AE Decode 6
  aebodsys: Body System 6
  aestdtc: 2014-04-09
  aeseq: 30
  aeendtc: 2014-04-23
ABC1-201-06: []
ABC1-201-07:
- !ruby/object:SdtmAe
  studyid: ABC1
  usubjid: ABC1-201-07
  aeterm: Reiciendis sint pariatur illum est.
  aedecod: AE Decode 1
  aebodsys: Body System 4
  aestdtc: 2014-09-03
  aeseq: 31
- !ruby/object:SdtmAe
  studyid: ABC1
  usubjid: ABC1-201-07
  aeterm: Expedita modi delectus.
  aedecod: AE Decode 8
  aebodsys: Body System 5
  aestdtc: 2014-08-17
  aeseq: 32
ABC1-201-08:
- !ruby/object:SdtmAe
  studyid: ABC1
  usubjid: ABC1-201-08
  aeterm: Aut beatae quisquam.
  aedecod: AE Decode 9
  aebodsys: Body System 6
  aestdtc: 2014-06-09
  aeseq: 33
  aeendtc: 2014-06-09
ABC1-201-09: []
ABC1-201-10: []
ABC1-201-11:
- !ruby/object:SdtmAe
  studyid: ABC1
  usubjid: ABC1-201-11
  aeterm: Inventore totam expedita quia odit et excepturi.
  aedecod: AE Decode 7
  aebodsys: Body System 4
  aestdtc: 2014-07-31
  aeseq: 34
  aeendtc: 2014-08-26
ABC1-201-12: []
ABC1-201-13: []
ABC1-201-14: []
ABC1-201-15:
- !ruby/object:SdtmAe
  studyid: ABC1
  usubjid: ABC1-201-15
  aeterm: Quis ut et minima delectus labore porro.
  aedecod: AE Decode 1
  aebodsys: Body System 10
  aestdtc: 2014-04-14
  aeseq: 35
ABC1-201-16: []
ABC1-201-17:
- !ruby/object:SdtmAe
  studyid: ABC1
  usubjid: ABC1-201-17
  aeterm: Tenetur distinctio recusandae.
  aedecod: AE Decode 5
  aebodsys: Body System 8
  aestdtc: 2014-04-15
  aeseq: 36
- !ruby/object:SdtmAe
  studyid: ABC1
  usubjid: ABC1-201-17
  aeterm: Expedita corrupti.
  aedecod: AE Decode 10
  aebodsys: Body System 5
  aestdtc: 2014-04-04
  aeseq: 37
- !ruby/object:SdtmAe
  studyid: ABC1
  usubjid: ABC1-201-17
  aeterm: Modi perferendis perspiciatis fuga omnis incidunt.
  aedecod: AE Decode 5
  aebodsys: Body System 8
  aestdtc: 2014-04-15
  aeseq: 38
  aeendtc: 2014-04-17
ABC1-201-18: []
ABC1-201-19: []
ABC1-201-20: []
ABC1-202-01: []
ABC1-202-02: []
ABC1-202-03: []
ABC1-202-04:
- !ruby/object:SdtmAe
  studyid: ABC1
  usubjid: ABC1-202-04
  aeterm: Illo iusto ea.
  aedecod: AE Decode 7
  aebodsys: Body System 1
  aestdtc: 2014-06-18
  aeseq: 39
- !ruby/object:SdtmAe
  studyid: ABC1
  usubjid: ABC1-202-04
  aeterm: Corporis quos veniam rerum.
  aedecod: AE Decode 8
  aebodsys: Body System 5
  aestdtc: 2014-06-27
  aeseq: 40
  aeendtc: 2014-06-27
ABC1-202-05:
- !ruby/object:SdtmAe
  studyid: ABC1
  usubjid: ABC1-202-05
  aeterm: Rerum autem sit aut necessitatibus ad consequatur.
  aedecod: AE Decode 1
  aebodsys: Body System 9
  aestdtc: 2014-03-26
  aeseq: 41
ABC1-202-06: []
ABC1-202-07:
- !ruby/object:SdtmAe
  studyid: ABC1
  usubjid: ABC1-202-07
  aeterm: Commodi aperiam est a.
  aedecod: AE Decode 7
  aebodsys: Body System 4
  aestdtc: 2014-06-12
  aeseq: 42
  aeendtc: 2014-06-12
- !ruby/object:SdtmAe
  studyid: ABC1
  usubjid: ABC1-202-07
  aeterm: Suscipit repellendus iure.
  aedecod: AE Decode 2
  aebodsys: Body System 6
  aestdtc: 2014-05-17
  aeseq: 43
ABC1-202-08:
- !ruby/object:SdtmAe
  studyid: ABC1
  usubjid: ABC1-202-08
  aeterm: Sint nobis eligendi consequuntur et voluptas ut.
  aedecod: AE Decode 7
  aebodsys: Body System 10
  aestdtc: 2014-05-25
  aeseq: 44
ABC1-202-09: []
ABC1-202-10:
- !ruby/object:SdtmAe
  studyid: ABC1
  usubjid: ABC1-202-10
  aeterm: Natus aut earum veniam eum sequi commodi.
  aedecod: AE Decode 1
  aebodsys: Body System 3
  aestdtc: 2014-08-29
  aeseq: 45
  aeendtc: 2014-09-17
ABC1-202-11:
- !ruby/object:SdtmAe
  studyid: ABC1
  usubjid: ABC1-202-11
  aeterm: Tenetur est odit esse fuga.
  aedecod: AE Decode 3
  aebodsys: Body System 4
  aestdtc: 2014-04-27
  aeseq: 46
  aeendtc: 2014-05-11
ABC1-202-12: []
ABC1-202-13:
- !ruby/object:SdtmAe
  studyid: ABC1
  usubjid: ABC1-202-13
  aeterm: Voluptas ratione amet qui reprehenderit mollitia.
  aedecod: AE Decode 1
  aebodsys: Body System 2
  aestdtc: 2014-03-15
  aeseq: 47
  aeendtc: 2014-03-17
ABC1-202-14:
- !ruby/object:SdtmAe
  studyid: ABC1
  usubjid: ABC1-202-14
  aeterm: Amet error reiciendis consequatur illum nemo dolor.
  aedecod: AE Decode 6
  aebodsys: Body System 9
  aestdtc: 2014-03-28
  aeseq: 48
  aeendtc: 2014-04-16
ABC1-202-15: []
ABC1-202-16: []
ABC1-202-17: []
ABC1-202-18: []
ABC1-202-19: []
ABC1-202-20: []
ABC1-202-21: []
ABC1-301-01: []
ABC1-301-02:
- !ruby/object:SdtmAe
  studyid: ABC1
  usubjid: ABC1-301-02
  aeterm: Velit quos omnis veritatis repellat aut nostrum.
  aedecod: AE Decode 8
  aebodsys: Body System 3
  aestdtc: 2014-06-07
  aeseq: 49
  aeendtc: 2014-06-15
ABC1-301-03: []
ABC1-301-04: []
ABC1-301-05:
- !ruby/object:SdtmAe
  studyid: ABC1
  usubjid: ABC1-301-05
  aeterm: Molestiae sed ut molestiae ad sit.
  aedecod: AE Decode 8
  aebodsys: Body System 5
  aestdtc: 2014-06-14
  aeseq: 50
ABC1-301-06:
- !ruby/object:SdtmAe
  studyid: ABC1
  usubjid: ABC1-301-06
  aeterm: Dolore deserunt omnis voluptatibus cumque.
  aedecod: AE Decode 8
  aebodsys: Body System 7
  aestdtc: 2014-04-20
  aeseq: 51
  aeendtc: 2014-04-20
- !ruby/object:SdtmAe
  studyid: ABC1
  usubjid: ABC1-301-06
  aeterm: Occaecati nihil repellendus earum aut.
  aedecod: AE Decode 7
  aebodsys: Body System 3
  aestdtc: 2014-04-18
  aeseq: 52
- !ruby/object:SdtmAe
  studyid: ABC1
  usubjid: ABC1-301-06
  aeterm: Ab magni.
  aedecod: AE Decode 7
  aebodsys: Body System 3
  aestdtc: 2014-04-12
  aeseq: 53
  aeendtc: 2014-04-19
- !ruby/object:SdtmAe
  studyid: ABC1
  usubjid: ABC1-301-06
  aeterm: Provident minus voluptate ea perferendis.
  aedecod: AE Decode 2
  aebodsys: Body System 2
  aestdtc: 2014-03-30
  aeseq: 54
ABC1-301-07:
- !ruby/object:SdtmAe
  studyid: ABC1
  usubjid: ABC1-301-07
  aeterm: Et doloremque facilis explicabo modi.
  aedecod: AE Decode 7
  aebodsys: Body System 5
  aestdtc: 2014-03-04
  aeseq: 55
ABC1-301-08:
- !ruby/object:SdtmAe
  studyid: ABC1
  usubjid: ABC1-301-08
  aeterm: Eos iusto cumque.
  aedecod: AE Decode 2
  aebodsys: Body System 7
  aestdtc: 2014-07-06
  aeseq: 56
- !ruby/object:SdtmAe
  studyid: ABC1
  usubjid: ABC1-301-08
  aeterm: Asperiores omnis ut.
  aedecod: AE Decode 10
  aebodsys: Body System 2
  aestdtc: 2014-07-02
  aeseq: 57
  aeendtc: 2014-07-12
ABC1-301-09: []
ABC1-301-10: []
ABC1-302-01: []
ABC1-302-02:
- !ruby/object:SdtmAe
  studyid: ABC1
  usubjid: ABC1-302-02
  aeterm: Quia eveniet numquam voluptatem exercitationem.
  aedecod: AE Decode 10
  aebodsys: Body System 9
  aestdtc: 2014-12-14
  aeseq: 58
- !ruby/object:SdtmAe
  studyid: ABC1
  usubjid: ABC1-302-02
  aeterm: Cum nobis doloremque.
  aedecod: AE Decode 2
  aebodsys: Body System 5
  aestdtc: 2014-12-15
  aeseq: 59
  aeendtc: 2014-12-16
ABC1-302-03: []
ABC1-302-04:
- !ruby/object:SdtmAe
  studyid: ABC1
  usubjid: ABC1-302-04
  aeterm: Odit itaque assumenda quia velit qui.
  aedecod: AE Decode 4
  aebodsys: Body System 4
  aestdtc: 2014-05-10
  aeseq: 60
- !ruby/object:SdtmAe
  studyid: ABC1
  usubjid: ABC1-302-04
  aeterm: Vero corrupti hic ad adipisci est.
  aedecod: AE Decode 1
  aebodsys: Body System 10
  aestdtc: 2014-05-10
  aeseq: 61
  aeendtc: 2014-05-16
- !ruby/object:SdtmAe
  studyid: ABC1
  usubjid: ABC1-302-04
  aeterm: Qui voluptas iusto ipsum.
  aedecod: AE Decode 4
  aebodsys: Body System 10
  aestdtc: 2014-04-07
  aeseq: 62
- !ruby/object:SdtmAe
  studyid: ABC1
  usubjid: ABC1-302-04
  aeterm: Repudiandae est laboriosam doloribus eum.
  aedecod: AE Decode 1
  aebodsys: Body System 4
  aestdtc: 2014-05-20
  aeseq: 63
- !ruby/object:SdtmAe
  studyid: ABC1
  usubjid: ABC1-302-04
  aeterm: Ut iure ex eius.
  aedecod: AE Decode 9
  aebodsys: Body System 7
  aestdtc: 2014-05-19
  aeseq: 64
  aeendtc: 2014-05-21
- !ruby/object:SdtmAe
  studyid: ABC1
  usubjid: ABC1-302-04
  aeterm: Consequatur voluptates necessitatibus.
  aedecod: AE Decode 9
  aebodsys: Body System 6
  aestdtc: 2014-04-04
  aeseq: 65
  aeendtc: 2014-05-21
- !ruby/object:SdtmAe
  studyid: ABC1
  usubjid: ABC1-302-04
  aeterm: Occaecati impedit ab eos vitae illo.
  aedecod: AE Decode 4
  aebodsys: Body System 5
  aestdtc: 2014-04-05
  aeseq: 66
  aeendtc: 2014-04-27
- !ruby/object:SdtmAe
  studyid: ABC1
  usubjid: ABC1-302-04
  aeterm: Cum distinctio.
  aedecod: AE Decode 2
  aebodsys: Body System 8
  aestdtc: 2014-05-17
  aeseq: 67
ABC1-302-05: []
ABC1-302-06:
- !ruby/object:SdtmAe
  studyid: ABC1
  usubjid: ABC1-302-06
  aeterm: Exercitationem aut omnis.
  aedecod: AE Decode 6
  aebodsys: Body System 7
  aestdtc: 2014-06-10
  aeseq: 68
- !ruby/object:SdtmAe
  studyid: ABC1
  usubjid: ABC1-302-06
  aeterm: Omnis maiores dolorem blanditiis quia est consequatur.
  aedecod: AE Decode 1
  aebodsys: Body System 8
  aestdtc: 2014-06-18
  aeseq: 69
ABC1-302-07:
- !ruby/object:SdtmAe
  studyid: ABC1
  usubjid: ABC1-302-07
  aeterm: Est qui.
  aedecod: AE Decode 2
  aebodsys: Body System 7
  aestdtc: 2014-04-08
  aeseq: 70
- !ruby/object:SdtmAe
  studyid: ABC1
  usubjid: ABC1-302-07
  aeterm: Nemo laudantium.
  aedecod: AE Decode 9
  aebodsys: Body System 6
  aestdtc: 2014-04-12
  aeseq: 71
- !ruby/object:SdtmAe
  studyid: ABC1
  usubjid: ABC1-302-07
  aeterm: Et laboriosam.
  aedecod: AE Decode 6
  aebodsys: Body System 5
  aestdtc: 2014-03-26
  aeseq: 72
- !ruby/object:SdtmAe
  studyid: ABC1
  usubjid: ABC1-302-07
  aeterm: Voluptatibus dolore facere quasi voluptas ipsum.
  aedecod: AE Decode 6
  aebodsys: Body System 9
  aestdtc: 2014-04-14
  aeseq: 73
  aeendtc: 2014-04-17
- !ruby/object:SdtmAe
  studyid: ABC1
  usubjid: ABC1-302-07
  aeterm: A tenetur et rerum omnis voluptatibus asperiores.
  aedecod: AE Decode 1
  aebodsys: Body System 5
  aestdtc: 2014-03-01
  aeseq: 74
- !ruby/object:SdtmAe
  studyid: ABC1
  usubjid: ABC1-302-07
  aeterm: Odit laudantium sit beatae.
  aedecod: AE Decode 1
  aebodsys: Body System 8
  aestdtc: 2014-03-31
  aeseq: 75
  aeendtc: 2014-04-11
ABC1-302-08:
- !ruby/object:SdtmAe
  studyid: ABC1
  usubjid: ABC1-302-08
  aeterm: Quidem blanditiis.
  aedecod: AE Decode 4
  aebodsys: Body System 5
  aestdtc: 2014-09-25
  aeseq: 76
- !ruby/object:SdtmAe
  studyid: ABC1
  usubjid: ABC1-302-08
  aeterm: Cumque repudiandae vel omnis quidem.
  aedecod: AE Decode 9
  aebodsys: Body System 6
  aestdtc: 2014-10-25
  aeseq: 77
ABC1-303-01:
- !ruby/object:SdtmAe
  studyid: ABC1
  usubjid: ABC1-303-01
  aeterm: Autem qui sint.
  aedecod: AE Decode 2
  aebodsys: Body System 5
  aestdtc: 2014-06-21
  aeseq: 78
ABC1-303-02: []
ABC1-303-03:
- !ruby/object:SdtmAe
  studyid: ABC1
  usubjid: ABC1-303-03
  aeterm: Nobis est et.
  aedecod: AE Decode 3
  aebodsys: Body System 6
  aestdtc: 2014-10-28
  aeseq: 79
ABC1-303-04:
- !ruby/object:SdtmAe
  studyid: ABC1
  usubjid: ABC1-303-04
  aeterm: Quis ratione est odit.
  aedecod: AE Decode 2
  aebodsys: Body System 1
  aestdtc: 2014-04-20
  aeseq: 80
ABC1-303-05:
- !ruby/object:SdtmAe
  studyid: ABC1
  usubjid: ABC1-303-05
  aeterm: Est maxime.
  aedecod: AE Decode 8
  aebodsys: Body System 5
  aestdtc: 2014-05-29
  aeseq: 81
ABC1-303-06: []
ABC1-303-07: []
ABC1-303-08:
- !ruby/object:SdtmAe
  studyid: ABC1
  usubjid: ABC1-303-08
  aeterm: Explicabo aut veritatis cum.
  aedecod: AE Decode 3
  aebodsys: Body System 8
  aestdtc: 2014-10-08
  aeseq: 82
  aeendtc: 2014-10-20
ABC1-303-09:
- !ruby/object:SdtmAe
  studyid: ABC1
  usubjid: ABC1-303-09
  aeterm: Veniam quia minima nobis in est adipisci.
  aedecod: AE Decode 10
  aebodsys: Body System 3
  aestdtc: 2014-04-04
  aeseq: 83
- !ruby/object:SdtmAe
  studyid: ABC1
  usubjid: ABC1-303-09
  aeterm: Culpa accusamus praesentium voluptatem inventore sed.
  aedecod: AE Decode 7
  aebodsys: Body System 6
  aestdtc: 2014-04-02
  aeseq: 84
  aeendtc: 2014-04-04
- !ruby/object:SdtmAe
  studyid: ABC1
  usubjid: ABC1-303-09
  aeterm: Quibusdam eum dolorem sapiente.
  aedecod: AE Decode 7
  aebodsys: Body System 6
  aestdtc: 2014-03-23
  aeseq: 85
ABC1-303-10: []
ABC1-303-11: []
ABC1-303-12: []
