---
- !ruby/object:SdtmLb
  studyid: ABC1
  usubjid: ABC1-302-01
  lbseq: 1
  lbtestcd: ALB
  lbtest: Albumin
  lbstresn: 4.2
  lbstnrlo: 3.4
  lbstnrhi: 4.7
  visitnum: 1
  visit: SCREENING
  visitdy: 14
  lbnrind: NORMAL
- !ruby/object:SdtmLb
  studyid: ABC1
  usubjid: ABC1-302-01
  lbseq: 1
  lbtestcd: BUN
  lbtest: Blood Urea Nitrogen (BUN)
  lbstresn: 13.1
  lbstnrlo: 8
  lbstnrhi: 20
  visitnum: 1
  visit: SCREENING
  visitdy: 14
  lbnrind: NORMAL
- !ruby/object:SdtmLb
  studyid: ABC1
  usubjid: ABC1-302-01
  lbseq: 1
  lbtestcd: CA
  lbtest: Calcium
  lbstresn: 9.43
  lbstnrlo: 8.5
  lbstnrhi: 10.5
  visitnum: 1
  visit: SCREENING
  visitdy: 14
  lbnrind: NORMAL
- !ruby/object:SdtmLb
  studyid: ABC1
  usubjid: ABC1-302-01
  lbseq: 1
  lbtestcd: GLUC
  lbtest: Glucose
  lbstresn: 66.6
  lbstnrlo: 60
  lbstnrhi: 115
  visitnum: 1
  visit: SCREENING
  visitdy: 14
  lbnrind: NORMAL
- !ruby/object:SdtmLb
  studyid: ABC1
  usubjid: ABC1-302-01
  lbseq: 2
  lbtestcd: ALB
  lbtest: Albumin
  lbstresn: 4.0
  lbstnrlo: 3.4
  lbstnrhi: 4.7
  visitnum: 2
  visit: BASELINE
  visitdy: 14
  lbnrind: NORMAL
- !ruby/object:SdtmLb
  studyid: ABC1
  usubjid: ABC1-302-01
  lbseq: 2
  lbtestcd: BUN
  lbtest: Blood Urea Nitrogen (BUN)
  lbstresn: 15.2
  lbstnrlo: 8
  lbstnrhi: 20
  visitnum: 2
  visit: BASELINE
  visitdy: 14
  lbnrind: NORMAL
- !ruby/object:SdtmLb
  studyid: ABC1
  usubjid: ABC1-302-01
  lbseq: 2
  lbtestcd: CA
  lbtest: Calcium
  lbstresn: 9.77
  lbstnrlo: 8.5
  lbstnrhi: 10.5
  visitnum: 2
  visit: BASELINE
  visitdy: 14
  lbnrind: NORMAL
- !ruby/object:SdtmLb
  studyid: ABC1
  usubjid: ABC1-302-01
  lbseq: 2
  lbtestcd: GLUC
  lbtest: Glucose
  lbstresn: 106.8
  lbstnrlo: 60
  lbstnrhi: 115
  visitnum: 2
  visit: BASELINE
  visitdy: 14
  lbnrind: NORMAL
- !ruby/object:SdtmLb
  studyid: ABC1
  usubjid: ABC1-302-01
  lbseq: 3
  lbtestcd: ALB
  lbtest: Albumin
  lbstresn: 4.2
  lbstnrlo: 3.4
  lbstnrhi: 4.7
  visitnum: 3
  visit: VISIT 2
  visitdy: 14
  lbnrind: NORMAL
- !ruby/object:SdtmLb
  studyid: ABC1
  usubjid: ABC1-302-01
  lbseq: 3
  lbtestcd: BUN
  lbtest: Blood Urea Nitrogen (BUN)
  lbstresn: 13.9
  lbstnrlo: 8
  lbstnrhi: 20
  visitnum: 3
  visit: VISIT 2
  visitdy: 14
  lbnrind: NORMAL
- !ruby/object:SdtmLb
  studyid: ABC1
  usubjid: ABC1-302-01
  lbseq: 3
  lbtestcd: CA
  lbtest: Calcium
  lbstresn: 9.22
  lbstnrlo: 8.5
  lbstnrhi: 10.5
  visitnum: 3
  visit: VISIT 2
  visitdy: 14
  lbnrind: NORMAL
- !ruby/object:SdtmLb
  studyid: ABC1
  usubjid: ABC1-302-01
  lbseq: 3
  lbtestcd: GLUC
  lbtest: Glucose
  lbstresn: 79.1
  lbstnrlo: 60
  lbstnrhi: 115
  visitnum: 3
  visit: VISIT 2
  visitdy: 14
  lbnrind: NORMAL
- !ruby/object:SdtmLb
  studyid: ABC1
  usubjid: ABC1-302-01
  lbseq: 4
  lbtestcd: ALB
  lbtest: Albumin
  lbstresn: 3.9
  lbstnrlo: 3.4
  lbstnrhi: 4.7
  visitnum: 4
  visit: VISIT 3
  visitdy: 14
  lbnrind: NORMAL
- !ruby/object:SdtmLb
  studyid: ABC1
  usubjid: ABC1-302-01
  lbseq: 4
  lbtestcd: BUN
  lbtest: Blood Urea Nitrogen (BUN)
  lbstresn: 11.9
  lbstnrlo: 8
  lbstnrhi: 20
  visitnum: 4
  visit: VISIT 3
  visitdy: 14
  lbnrind: NORMAL
- !ruby/object:SdtmLb
  studyid: ABC1
  usubjid: ABC1-302-01
  lbseq: 4
  lbtestcd: CA
  lbtest: Calcium
  lbstresn: 9.25
  lbstnrlo: 8.5
  lbstnrhi: 10.5
  visitnum: 4
  visit: VISIT 3
  visitdy: 14
  lbnrind: NORMAL
- !ruby/object:SdtmLb
  studyid: ABC1
  usubjid: ABC1-302-01
  lbseq: 4
  lbtestcd: GLUC
  lbtest: Glucose
  lbstresn: 52.5
  lbstnrlo: 60
  lbstnrhi: 115
  visitnum: 4
  visit: VISIT 3
  visitdy: 14
  lbnrind: LOW
- !ruby/object:SdtmLb
  studyid: ABC1
  usubjid: ABC1-302-01
  lbseq: 5
  lbtestcd: ALB
  lbtest: Albumin
  lbstresn: 4.8
  lbstnrlo: 3.4
  lbstnrhi: 4.7
  visitnum: 5
  visit: VISIT 4
  visitdy: 14
  lbnrind: HIGH
- !ruby/object:SdtmLb
  studyid: ABC1
  usubjid: ABC1-302-01
  lbseq: 5
  lbtestcd: BUN
  lbtest: Blood Urea Nitrogen (BUN)
  lbstresn: 19.8
  lbstnrlo: 8
  lbstnrhi: 20
  visitnum: 5
  visit: VISIT 4
  visitdy: 14
  lbnrind: NORMAL
- !ruby/object:SdtmLb
  studyid: ABC1
  usubjid: ABC1-302-01
  lbseq: 5
  lbtestcd: CA
  lbtest: Calcium
  lbstresn: 9.47
  lbstnrlo: 8.5
  lbstnrhi: 10.5
  visitnum: 5
  visit: VISIT 4
  visitdy: 14
  lbnrind: NORMAL
- !ruby/object:SdtmLb
  studyid: ABC1
  usubjid: ABC1-302-01
  lbseq: 5
  lbtestcd: GLUC
  lbtest: Glucose
  lbstresn: 98.0
  lbstnrlo: 60
  lbstnrhi: 115
  visitnum: 5
  visit: VISIT 4
  visitdy: 14
  lbnrind: NORMAL
- !ruby/object:SdtmLb
  studyid: ABC1
  usubjid: ABC1-302-01
  lbseq: 6
  lbtestcd: ALB
  lbtest: Albumin
  lbstresn: 4.7
  lbstnrlo: 3.4
  lbstnrhi: 4.7
  visitnum: 6
  visit: VISIT 5
  visitdy: 14
  lbnrind: NORMAL
- !ruby/object:SdtmLb
  studyid: ABC1
  usubjid: ABC1-302-01
  lbseq: 6
  lbtestcd: BUN
  lbtest: Blood Urea Nitrogen (BUN)
  lbstresn: 12.5
  lbstnrlo: 8
  lbstnrhi: 20
  visitnum: 6
  visit: VISIT 5
  visitdy: 14
  lbnrind: NORMAL
- !ruby/object:SdtmLb
  studyid: ABC1
  usubjid: ABC1-302-01
  lbseq: 6
  lbtestcd: CA
  lbtest: Calcium
  lbstresn: 9.15
  lbstnrlo: 8.5
  lbstnrhi: 10.5
  visitnum: 6
  visit: VISIT 5
  visitdy: 14
  lbnrind: NORMAL
- !ruby/object:SdtmLb
  studyid: ABC1
  usubjid: ABC1-302-01
  lbseq: 6
  lbtestcd: GLUC
  lbtest: Glucose
  lbstresn: 98.1
  lbstnrlo: 60
  lbstnrhi: 115
  visitnum: 6
  visit: VISIT 5
  visitdy: 14
  lbnrind: NORMAL
- !ruby/object:SdtmLb
  studyid: ABC1
  usubjid: ABC1-302-01
  lbseq: 7
  lbtestcd: ALB
  lbtest: Albumin
  lbstresn: 4.3
  lbstnrlo: 3.4
  lbstnrhi: 4.7
  visitnum: 7
  visit: VISIT 6
  visitdy: 14
  lbnrind: NORMAL
- !ruby/object:SdtmLb
  studyid: ABC1
  usubjid: ABC1-302-01
  lbseq: 7
  lbtestcd: BUN
  lbtest: Blood Urea Nitrogen (BUN)
  lbstresn: 17.1
  lbstnrlo: 8
  lbstnrhi: 20
  visitnum: 7
  visit: VISIT 6
  visitdy: 14
  lbnrind: NORMAL
- !ruby/object:SdtmLb
  studyid: ABC1
  usubjid: ABC1-302-01
  lbseq: 7
  lbtestcd: CA
  lbtest: Calcium
  lbstresn: 9.32
  lbstnrlo: 8.5
  lbstnrhi: 10.5
  visitnum: 7
  visit: VISIT 6
  visitdy: 14
  lbnrind: NORMAL
- !ruby/object:SdtmLb
  studyid: ABC1
  usubjid: ABC1-302-01
  lbseq: 7
  lbtestcd: GLUC
  lbtest: Glucose
  lbstresn: 92.8
  lbstnrlo: 60
  lbstnrhi: 115
  visitnum: 7
  visit: VISIT 6
  visitdy: 14
  lbnrind: NORMAL
- !ruby/object:SdtmLb
  studyid: ABC1
  usubjid: ABC1-301-01
  lbseq: 8
  lbtestcd: ALB
  lbtest: Albumin
  lbstresn: 4.1
  lbstnrlo: 3.4
  lbstnrhi: 4.7
  visitnum: 1
  visit: SCREENING
  visitdy: 14
  lbnrind: NORMAL
- !ruby/object:SdtmLb
  studyid: ABC1
  usubjid: ABC1-301-01
  lbseq: 8
  lbtestcd: BUN
  lbtest: Blood Urea Nitrogen (BUN)
  lbstresn: 16.9
  lbstnrlo: 8
  lbstnrhi: 20
  visitnum: 1
  visit: SCREENING
  visitdy: 14
  lbnrind: NORMAL
- !ruby/object:SdtmLb
  studyid: ABC1
  usubjid: ABC1-301-01
  lbseq: 8
  lbtestcd: CA
  lbtest: Calcium
  lbstresn: 8.54
  lbstnrlo: 8.5
  lbstnrhi: 10.5
  visitnum: 1
  visit: SCREENING
  visitdy: 14
  lbnrind: NORMAL
- !ruby/object:SdtmLb
  studyid: ABC1
  usubjid: ABC1-301-01
  lbseq: 8
  lbtestcd: GLUC
  lbtest: Glucose
  lbstresn: 106.1
  lbstnrlo: 60
  lbstnrhi: 115
  visitnum: 1
  visit: SCREENING
  visitdy: 14
  lbnrind: NORMAL
- !ruby/object:SdtmLb
  studyid: ABC1
  usubjid: ABC1-102-01
  lbseq: 9
  lbtestcd: ALB
  lbtest: Albumin
  lbstresn: 3.8
  lbstnrlo: 3.4
  lbstnrhi: 4.7
  visitnum: 1
  visit: SCREENING
  visitdy: 14
  lbnrind: NORMAL
- !ruby/object:SdtmLb
  studyid: ABC1
  usubjid: ABC1-102-01
  lbseq: 9
  lbtestcd: BUN
  lbtest: Blood Urea Nitrogen (BUN)
  lbstresn: 11.9
  lbstnrlo: 8
  lbstnrhi: 20
  visitnum: 1
  visit: SCREENING
  visitdy: 14
  lbnrind: NORMAL
- !ruby/object:SdtmLb
  studyid: ABC1
  usubjid: ABC1-102-01
  lbseq: 9
  lbtestcd: CA
  lbtest: Calcium
  lbstresn: 9.39
  lbstnrlo: 8.5
  lbstnrhi: 10.5
  visitnum: 1
  visit: SCREENING
  visitdy: 14
  lbnrind: NORMAL
- !ruby/object:SdtmLb
  studyid: ABC1
  usubjid: ABC1-102-01
  lbseq: 9
  lbtestcd: GLUC
  lbtest: Glucose
  lbstresn: 107.8
  lbstnrlo: 60
  lbstnrhi: 115
  visitnum: 1
  visit: SCREENING
  visitdy: 14
  lbnrind: NORMAL
- !ruby/object:SdtmLb
  studyid: ABC1
  usubjid: ABC1-301-02
  lbseq: 10
  lbtestcd: ALB
  lbtest: Albumin
  lbstresn: 4.0
  lbstnrlo: 3.4
  lbstnrhi: 4.7
  visitnum: 1
  visit: SCREENING
  visitdy: 14
  lbnrind: NORMAL
- !ruby/object:SdtmLb
  studyid: ABC1
  usubjid: ABC1-301-02
  lbseq: 10
  lbtestcd: BUN
  lbtest: Blood Urea Nitrogen (BUN)
  lbstresn: 16.3
  lbstnrlo: 8
  lbstnrhi: 20
  visitnum: 1
  visit: SCREENING
  visitdy: 14
  lbnrind: NORMAL
- !ruby/object:SdtmLb
  studyid: ABC1
  usubjid: ABC1-301-02
  lbseq: 10
  lbtestcd: CA
  lbtest: Calcium
  lbstresn: 10.23
  lbstnrlo: 8.5
  lbstnrhi: 10.5
  visitnum: 1
  visit: SCREENING
  visitdy: 14
  lbnrind: NORMAL
- !ruby/object:SdtmLb
  studyid: ABC1
  usubjid: ABC1-301-02
  lbseq: 10
  lbtestcd: GLUC
  lbtest: Glucose
  lbstresn: 73.1
  lbstnrlo: 60
  lbstnrhi: 115
  visitnum: 1
  visit: SCREENING
  visitdy: 14
  lbnrind: NORMAL
- !ruby/object:SdtmLb
  studyid: ABC1
  usubjid: ABC1-301-02
  lbseq: 11
  lbtestcd: ALB
  lbtest: Albumin
  lbstresn: 4.1
  lbstnrlo: 3.4
  lbstnrhi: 4.7
  visitnum: 2
  visit: BASELINE
  visitdy: 14
  lbnrind: NORMAL
- !ruby/object:SdtmLb
  studyid: ABC1
  usubjid: ABC1-301-02
  lbseq: 11
  lbtestcd: BUN
  lbtest: Blood Urea Nitrogen (BUN)
  lbstresn: 14.6
  lbstnrlo: 8
  lbstnrhi: 20
  visitnum: 2
  visit: BASELINE
  visitdy: 14
  lbnrind: NORMAL
- !ruby/object:SdtmLb
  studyid: ABC1
  usubjid: ABC1-301-02
  lbseq: 11
  lbtestcd: CA
  lbtest: Calcium
  lbstresn: 9.84
  lbstnrlo: 8.5
  lbstnrhi: 10.5
  visitnum: 2
  visit: BASELINE
  visitdy: 14
  lbnrind: NORMAL
- !ruby/object:SdtmLb
  studyid: ABC1
  usubjid: ABC1-301-02
  lbseq: 11
  lbtestcd: GLUC
  lbtest: Glucose
  lbstresn: 81.0
  lbstnrlo: 60
  lbstnrhi: 115
  visitnum: 2
  visit: BASELINE
  visitdy: 14
  lbnrind: NORMAL
- !ruby/object:SdtmLb
  studyid: ABC1
  usubjid: ABC1-301-02
  lbseq: 12
  lbtestcd: ALB
  lbtest: Albumin
  lbstresn: 3.9
  lbstnrlo: 3.4
  lbstnrhi: 4.7
  visitnum: 3
  visit: VISIT 2
  visitdy: 14
  lbnrind: NORMAL
- !ruby/object:SdtmLb
  studyid: ABC1
  usubjid: ABC1-301-02
  lbseq: 12
  lbtestcd: BUN
  lbtest: Blood Urea Nitrogen (BUN)
  lbstresn: 18.8
  lbstnrlo: 8
  lbstnrhi: 20
  visitnum: 3
  visit: VISIT 2
  visitdy: 14
  lbnrind: NORMAL
- !ruby/object:SdtmLb
  studyid: ABC1
  usubjid: ABC1-301-02
  lbseq: 12
  lbtestcd: CA
  lbtest: Calcium
  lbstresn: 10.52
  lbstnrlo: 8.5
  lbstnrhi: 10.5
  visitnum: 3
  visit: VISIT 2
  visitdy: 14
  lbnrind: HIGH
- !ruby/object:SdtmLb
  studyid: ABC1
  usubjid: ABC1-301-02
  lbseq: 12
  lbtestcd: GLUC
  lbtest: Glucose
  lbstresn: 76.2
  lbstnrlo: 60
  lbstnrhi: 115
  visitnum: 3
  visit: VISIT 2
  visitdy: 14
  lbnrind: NORMAL
- !ruby/object:SdtmLb
  studyid: ABC1
  usubjid: ABC1-301-02
  lbseq: 13
  lbtestcd: ALB
  lbtest: Albumin
  lbstresn: 3.9
  lbstnrlo: 3.4
  lbstnrhi: 4.7
  visitnum: 4
  visit: VISIT 3
  visitdy: 14
  lbnrind: NORMAL
- !ruby/object:SdtmLb
  studyid: ABC1
  usubjid: ABC1-301-02
  lbseq: 13
  lbtestcd: BUN
  lbtest: Blood Urea Nitrogen (BUN)
  lbstresn: 19.2
  lbstnrlo: 8
  lbstnrhi: 20
  visitnum: 4
  visit: VISIT 3
  visitdy: 14
  lbnrind: NORMAL
- !ruby/object:SdtmLb
  studyid: ABC1
  usubjid: ABC1-301-02
  lbseq: 13
  lbtestcd: CA
  lbtest: Calcium
  lbstresn: 9.43
  lbstnrlo: 8.5
  lbstnrhi: 10.5
  visitnum: 4
  visit: VISIT 3
  visitdy: 14
  lbnrind: NORMAL
- !ruby/object:SdtmLb
  studyid: ABC1
  usubjid: ABC1-301-02
  lbseq: 13
  lbtestcd: GLUC
  lbtest: Glucose
  lbstresn: 89.6
  lbstnrlo: 60
  lbstnrhi: 115
  visitnum: 4
  visit: VISIT 3
  visitdy: 14
  lbnrind: NORMAL
- !ruby/object:SdtmLb
  studyid: ABC1
  usubjid: ABC1-301-02
  lbseq: 14
  lbtestcd: ALB
  lbtest: Albumin
  lbstresn: 3.9
  lbstnrlo: 3.4
  lbstnrhi: 4.7
  visitnum: 5
  visit: VISIT 4
  visitdy: 14
  lbnrind: NORMAL
- !ruby/object:SdtmLb
  studyid: ABC1
  usubjid: ABC1-301-02
  lbseq: 14
  lbtestcd: BUN
  lbtest: Blood Urea Nitrogen (BUN)
  lbstresn: 19.0
  lbstnrlo: 8
  lbstnrhi: 20
  visitnum: 5
  visit: VISIT 4
  visitdy: 14
  lbnrind: NORMAL
- !ruby/object:SdtmLb
  studyid: ABC1
  usubjid: ABC1-301-02
  lbseq: 14
  lbtestcd: CA
  lbtest: Calcium
  lbstresn: 8.32
  lbstnrlo: 8.5
  lbstnrhi: 10.5
  visitnum: 5
  visit: VISIT 4
  visitdy: 14
  lbnrind: LOW
- !ruby/object:SdtmLb
  studyid: ABC1
  usubjid: ABC1-301-02
  lbseq: 14
  lbtestcd: GLUC
  lbtest: Glucose
  lbstresn: 100.9
  lbstnrlo: 60
  lbstnrhi: 115
  visitnum: 5
  visit: VISIT 4
  visitdy: 14
  lbnrind: NORMAL
- !ruby/object:SdtmLb
  studyid: ABC1
  usubjid: ABC1-301-02
  lbseq: 15
  lbtestcd: ALB
  lbtest: Albumin
  lbstresn: 3.9
  lbstnrlo: 3.4
  lbstnrhi: 4.7
  visitnum: 6
  visit: VISIT 5
  visitdy: 14
  lbnrind: NORMAL
- !ruby/object:SdtmLb
  studyid: ABC1
  usubjid: ABC1-301-02
  lbseq: 15
  lbtestcd: BUN
  lbtest: Blood Urea Nitrogen (BUN)
  lbstresn: 15.8
  lbstnrlo: 8
  lbstnrhi: 20
  visitnum: 6
  visit: VISIT 5
  visitdy: 14
  lbnrind: NORMAL
- !ruby/object:SdtmLb
  studyid: ABC1
  usubjid: ABC1-301-02
  lbseq: 15
  lbtestcd: CA
  lbtest: Calcium
  lbstresn: 9.45
  lbstnrlo: 8.5
  lbstnrhi: 10.5
  visitnum: 6
  visit: VISIT 5
  visitdy: 14
  lbnrind: NORMAL
- !ruby/object:SdtmLb
  studyid: ABC1
  usubjid: ABC1-301-02
  lbseq: 15
  lbtestcd: GLUC
  lbtest: Glucose
  lbstresn: 90.2
  lbstnrlo: 60
  lbstnrhi: 115
  visitnum: 6
  visit: VISIT 5
  visitdy: 14
  lbnrind: NORMAL
- !ruby/object:SdtmLb
  studyid: ABC1
  usubjid: ABC1-301-02
  lbseq: 16
  lbtestcd: ALB
  lbtest: Albumin
  lbstresn: 4.1
  lbstnrlo: 3.4
  lbstnrhi: 4.7
  visitnum: 7
  visit: VISIT 6
  visitdy: 14
  lbnrind: NORMAL
- !ruby/object:SdtmLb
  studyid: ABC1
  usubjid: ABC1-301-02
  lbseq: 16
  lbtestcd: BUN
  lbtest: Blood Urea Nitrogen (BUN)
  lbstresn: 15.7
  lbstnrlo: 8
  lbstnrhi: 20
  visitnum: 7
  visit: VISIT 6
  visitdy: 14
  lbnrind: NORMAL
- !ruby/object:SdtmLb
  studyid: ABC1
  usubjid: ABC1-301-02
  lbseq: 16
  lbtestcd: CA
  lbtest: Calcium
  lbstresn: 9.39
  lbstnrlo: 8.5
  lbstnrhi: 10.5
  visitnum: 7
  visit: VISIT 6
  visitdy: 14
  lbnrind: NORMAL
- !ruby/object:SdtmLb
  studyid: ABC1
  usubjid: ABC1-301-02
  lbseq: 16
  lbtestcd: GLUC
  lbtest: Glucose
  lbstresn: 88.5
  lbstnrlo: 60
  lbstnrhi: 115
  visitnum: 7
  visit: VISIT 6
  visitdy: 14
  lbnrind: NORMAL
- !ruby/object:SdtmLb
  studyid: ABC1
  usubjid: ABC1-202-01
  lbseq: 17
  lbtestcd: ALB
  lbtest: Albumin
  lbstresn: 3.9
  lbstnrlo: 3.4
  lbstnrhi: 4.7
  visitnum: 1
  visit: SCREENING
  visitdy: 14
  lbnrind: NORMAL
- !ruby/object:SdtmLb
  studyid: ABC1
  usubjid: ABC1-202-01
  lbseq: 17
  lbtestcd: BUN
  lbtest: Blood Urea Nitrogen (BUN)
  lbstresn: 13.4
  lbstnrlo: 8
  lbstnrhi: 20
  visitnum: 1
  visit: SCREENING
  visitdy: 14
  lbnrind: NORMAL
- !ruby/object:SdtmLb
  studyid: ABC1
  usubjid: ABC1-202-01
  lbseq: 17
  lbtestcd: CA
  lbtest: Calcium
  lbstresn: 9.68
  lbstnrlo: 8.5
  lbstnrhi: 10.5
  visitnum: 1
  visit: SCREENING
  visitdy: 14
  lbnrind: NORMAL
- !ruby/object:SdtmLb
  studyid: ABC1
  usubjid: ABC1-202-01
  lbseq: 17
  lbtestcd: GLUC
  lbtest: Glucose
  lbstresn: 72.5
  lbstnrlo: 60
  lbstnrhi: 115
  visitnum: 1
  visit: SCREENING
  visitdy: 14
  lbnrind: NORMAL
- !ruby/object:SdtmLb
  studyid: ABC1
  usubjid: ABC1-202-01
  lbseq: 18
  lbtestcd: ALB
  lbtest: Albumin
  lbstresn: 4.0
  lbstnrlo: 3.4
  lbstnrhi: 4.7
  visitnum: 2
  visit: BASELINE
  visitdy: 14
  lbnrind: NORMAL
- !ruby/object:SdtmLb
  studyid: ABC1
  usubjid: ABC1-202-01
  lbseq: 18
  lbtestcd: BUN
  lbtest: Blood Urea Nitrogen (BUN)
  lbstresn: 14.6
  lbstnrlo: 8
  lbstnrhi: 20
  visitnum: 2
  visit: BASELINE
  visitdy: 14
  lbnrind: NORMAL
- !ruby/object:SdtmLb
  studyid: ABC1
  usubjid: ABC1-202-01
  lbseq: 18
  lbtestcd: CA
  lbtest: Calcium
  lbstresn: 10.06
  lbstnrlo: 8.5
  lbstnrhi: 10.5
  visitnum: 2
  visit: BASELINE
  visitdy: 14
  lbnrind: NORMAL
- !ruby/object:SdtmLb
  studyid: ABC1
  usubjid: ABC1-202-01
  lbseq: 18
  lbtestcd: GLUC
  lbtest: Glucose
  lbstresn: 77.1
  lbstnrlo: 60
  lbstnrhi: 115
  visitnum: 2
  visit: BASELINE
  visitdy: 14
  lbnrind: NORMAL
- !ruby/object:SdtmLb
  studyid: ABC1
  usubjid: ABC1-202-01
  lbseq: 19
  lbtestcd: ALB
  lbtest: Albumin
  lbstresn: 3.9
  lbstnrlo: 3.4
  lbstnrhi: 4.7
  visitnum: 3
  visit: VISIT 2
  visitdy: 14
  lbnrind: NORMAL
- !ruby/object:SdtmLb
  studyid: ABC1
  usubjid: ABC1-202-01
  lbseq: 19
  lbtestcd: BUN
  lbtest: Blood Urea Nitrogen (BUN)
  lbstresn: 11.6
  lbstnrlo: 8
  lbstnrhi: 20
  visitnum: 3
  visit: VISIT 2
  visitdy: 14
  lbnrind: NORMAL
- !ruby/object:SdtmLb
  studyid: ABC1
  usubjid: ABC1-202-01
  lbseq: 19
  lbtestcd: CA
  lbtest: Calcium
  lbstresn: 9.48
  lbstnrlo: 8.5
  lbstnrhi: 10.5
  visitnum: 3
  visit: VISIT 2
  visitdy: 14
  lbnrind: NORMAL
- !ruby/object:SdtmLb
  studyid: ABC1
  usubjid: ABC1-202-01
  lbseq: 19
  lbtestcd: GLUC
  lbtest: Glucose
  lbstresn: 75.5
  lbstnrlo: 60
  lbstnrhi: 115
  visitnum: 3
  visit: VISIT 2
  visitdy: 14
  lbnrind: NORMAL
- !ruby/object:SdtmLb
  studyid: ABC1
  usubjid: ABC1-103-01
  lbseq: 20
  lbtestcd: ALB
  lbtest: Albumin
  lbstresn: 4.2
  lbstnrlo: 3.4
  lbstnrhi: 4.7
  visitnum: 1
  visit: SCREENING
  visitdy: 14
  lbnrind: NORMAL
- !ruby/object:SdtmLb
  studyid: ABC1
  usubjid: ABC1-103-01
  lbseq: 20
  lbtestcd: BUN
  lbtest: Blood Urea Nitrogen (BUN)
  lbstresn: 14.0
  lbstnrlo: 8
  lbstnrhi: 20
  visitnum: 1
  visit: SCREENING
  visitdy: 14
  lbnrind: NORMAL
- !ruby/object:SdtmLb
  studyid: ABC1
  usubjid: ABC1-103-01
  lbseq: 20
  lbtestcd: CA
  lbtest: Calcium
  lbstresn: 9.03
  lbstnrlo: 8.5
  lbstnrhi: 10.5
  visitnum: 1
  visit: SCREENING
  visitdy: 14
  lbnrind: NORMAL
- !ruby/object:SdtmLb
  studyid: ABC1
  usubjid: ABC1-103-01
  lbseq: 20
  lbtestcd: GLUC
  lbtest: Glucose
  lbstresn: 85.6
  lbstnrlo: 60
  lbstnrhi: 115
  visitnum: 1
  visit: SCREENING
  visitdy: 14
  lbnrind: NORMAL
- !ruby/object:SdtmLb
  studyid: ABC1
  usubjid: ABC1-101-01
  lbseq: 21
  lbtestcd: ALB
  lbtest: Albumin
  lbstresn: 3.3
  lbstnrlo: 3.4
  lbstnrhi: 4.7
  visitnum: 1
  visit: SCREENING
  visitdy: 14
  lbnrind: LOW
- !ruby/object:SdtmLb
  studyid: ABC1
  usubjid: ABC1-101-01
  lbseq: 21
  lbtestcd: BUN
  lbtest: Blood Urea Nitrogen (BUN)
  lbstresn: 13.8
  lbstnrlo: 8
  lbstnrhi: 20
  visitnum: 1
  visit: SCREENING
  visitdy: 14
  lbnrind: NORMAL
- !ruby/object:SdtmLb
  studyid: ABC1
  usubjid: ABC1-101-01
  lbseq: 21
  lbtestcd: CA
  lbtest: Calcium
  lbstresn: 9.49
  lbstnrlo: 8.5
  lbstnrhi: 10.5
  visitnum: 1
  visit: SCREENING
  visitdy: 14
  lbnrind: NORMAL
- !ruby/object:SdtmLb
  studyid: ABC1
  usubjid: ABC1-101-01
  lbseq: 21
  lbtestcd: GLUC
  lbtest: Glucose
  lbstresn: 73.2
  lbstnrlo: 60
  lbstnrhi: 115
  visitnum: 1
  visit: SCREENING
  visitdy: 14
  lbnrind: NORMAL
- !ruby/object:SdtmLb
  studyid: ABC1
  usubjid: ABC1-101-01
  lbseq: 22
  lbtestcd: ALB
  lbtest: Albumin
  lbstresn: 3.9
  lbstnrlo: 3.4
  lbstnrhi: 4.7
  visitnum: 2
  visit: BASELINE
  visitdy: 14
  lbnrind: NORMAL
- !ruby/object:SdtmLb
  studyid: ABC1
  usubjid: ABC1-101-01
  lbseq: 22
  lbtestcd: BUN
  lbtest: Blood Urea Nitrogen (BUN)
  lbstresn: 15.5
  lbstnrlo: 8
  lbstnrhi: 20
  visitnum: 2
  visit: BASELINE
  visitdy: 14
  lbnrind: NORMAL
- !ruby/object:SdtmLb
  studyid: ABC1
  usubjid: ABC1-101-01
  lbseq: 22
  lbtestcd: CA
  lbtest: Calcium
  lbstresn: 9.53
  lbstnrlo: 8.5
  lbstnrhi: 10.5
  visitnum: 2
  visit: BASELINE
  visitdy: 14
  lbnrind: NORMAL
- !ruby/object:SdtmLb
  studyid: ABC1
  usubjid: ABC1-101-01
  lbseq: 22
  lbtestcd: GLUC
  lbtest: Glucose
  lbstresn: 88.4
  lbstnrlo: 60
  lbstnrhi: 115
  visitnum: 2
  visit: BASELINE
  visitdy: 14
  lbnrind: NORMAL
- !ruby/object:SdtmLb
  studyid: ABC1
  usubjid: ABC1-102-02
  lbseq: 23
  lbtestcd: ALB
  lbtest: Albumin
  lbstresn: 4.0
  lbstnrlo: 3.4
  lbstnrhi: 4.7
  visitnum: 1
  visit: SCREENING
  visitdy: 14
  lbnrind: NORMAL
- !ruby/object:SdtmLb
  studyid: ABC1
  usubjid: ABC1-102-02
  lbseq: 23
  lbtestcd: BUN
  lbtest: Blood Urea Nitrogen (BUN)
  lbstresn: 14.3
  lbstnrlo: 8
  lbstnrhi: 20
  visitnum: 1
  visit: SCREENING
  visitdy: 14
  lbnrind: NORMAL
- !ruby/object:SdtmLb
  studyid: ABC1
  usubjid: ABC1-102-02
  lbseq: 23
  lbtestcd: CA
  lbtest: Calcium
  lbstresn: 10.19
  lbstnrlo: 8.5
  lbstnrhi: 10.5
  visitnum: 1
  visit: SCREENING
  visitdy: 14
  lbnrind: NORMAL
- !ruby/object:SdtmLb
  studyid: ABC1
  usubjid: ABC1-102-02
  lbseq: 23
  lbtestcd: GLUC
  lbtest: Glucose
  lbstresn: 64.9
  lbstnrlo: 60
  lbstnrhi: 115
  visitnum: 1
  visit: SCREENING
  visitdy: 14
  lbnrind: NORMAL
- !ruby/object:SdtmLb
  studyid: ABC1
  usubjid: ABC1-102-02
  lbseq: 24
  lbtestcd: ALB
  lbtest: Albumin
  lbstresn: 3.8
  lbstnrlo: 3.4
  lbstnrhi: 4.7
  visitnum: 2
  visit: BASELINE
  visitdy: 14
  lbnrind: NORMAL
- !ruby/object:SdtmLb
  studyid: ABC1
  usubjid: ABC1-102-02
  lbseq: 24
  lbtestcd: BUN
  lbtest: Blood Urea Nitrogen (BUN)
  lbstresn: 14.9
  lbstnrlo: 8
  lbstnrhi: 20
  visitnum: 2
  visit: BASELINE
  visitdy: 14
  lbnrind: NORMAL
- !ruby/object:SdtmLb
  studyid: ABC1
  usubjid: ABC1-102-02
  lbseq: 24
  lbtestcd: CA
  lbtest: Calcium
  lbstresn: 11.06
  lbstnrlo: 8.5
  lbstnrhi: 10.5
  visitnum: 2
  visit: BASELINE
  visitdy: 14
  lbnrind: HIGH
- !ruby/object:SdtmLb
  studyid: ABC1
  usubjid: ABC1-102-02
  lbseq: 24
  lbtestcd: GLUC
  lbtest: Glucose
  lbstresn: 90.4
  lbstnrlo: 60
  lbstnrhi: 115
  visitnum: 2
  visit: BASELINE
  visitdy: 14
  lbnrind: NORMAL
- !ruby/object:SdtmLb
  studyid: ABC1
  usubjid: ABC1-102-02
  lbseq: 25
  lbtestcd: ALB
  lbtest: Albumin
  lbstresn: 3.7
  lbstnrlo: 3.4
  lbstnrhi: 4.7
  visitnum: 3
  visit: VISIT 2
  visitdy: 14
  lbnrind: NORMAL
- !ruby/object:SdtmLb
  studyid: ABC1
  usubjid: ABC1-102-02
  lbseq: 25
  lbtestcd: BUN
  lbtest: Blood Urea Nitrogen (BUN)
  lbstresn: 11.2
  lbstnrlo: 8
  lbstnrhi: 20
  visitnum: 3
  visit: VISIT 2
  visitdy: 14
  lbnrind: NORMAL
- !ruby/object:SdtmLb
  studyid: ABC1
  usubjid: ABC1-102-02
  lbseq: 25
  lbtestcd: CA
  lbtest: Calcium
  lbstresn: 9.46
  lbstnrlo: 8.5
  lbstnrhi: 10.5
  visitnum: 3
  visit: VISIT 2
  visitdy: 14
  lbnrind: NORMAL
- !ruby/object:SdtmLb
  studyid: ABC1
  usubjid: ABC1-102-02
  lbseq: 25
  lbtestcd: GLUC
  lbtest: Glucose
  lbstresn: 94.1
  lbstnrlo: 60
  lbstnrhi: 115
  visitnum: 3
  visit: VISIT 2
  visitdy: 14
  lbnrind: NORMAL
- !ruby/object:SdtmLb
  studyid: ABC1
  usubjid: ABC1-102-02
  lbseq: 26
  lbtestcd: ALB
  lbtest: Albumin
  lbstresn: 4.2
  lbstnrlo: 3.4
  lbstnrhi: 4.7
  visitnum: 4
  visit: VISIT 3
  visitdy: 14
  lbnrind: NORMAL
- !ruby/object:SdtmLb
  studyid: ABC1
  usubjid: ABC1-102-02
  lbseq: 26
  lbtestcd: BUN
  lbtest: Blood Urea Nitrogen (BUN)
  lbstresn: 11.4
  lbstnrlo: 8
  lbstnrhi: 20
  visitnum: 4
  visit: VISIT 3
  visitdy: 14
  lbnrind: NORMAL
- !ruby/object:SdtmLb
  studyid: ABC1
  usubjid: ABC1-102-02
  lbseq: 26
  lbtestcd: CA
  lbtest: Calcium
  lbstresn: 9.34
  lbstnrlo: 8.5
  lbstnrhi: 10.5
  visitnum: 4
  visit: VISIT 3
  visitdy: 14
  lbnrind: NORMAL
- !ruby/object:SdtmLb
  studyid: ABC1
  usubjid: ABC1-102-02
  lbseq: 26
  lbtestcd: GLUC
  lbtest: Glucose
  lbstresn: 100.0
  lbstnrlo: 60
  lbstnrhi: 115
  visitnum: 4
  visit: VISIT 3
  visitdy: 14
  lbnrind: NORMAL
- !ruby/object:SdtmLb
  studyid: ABC1
  usubjid: ABC1-102-02
  lbseq: 27
  lbtestcd: ALB
  lbtest: Albumin
  lbstresn: 4.1
  lbstnrlo: 3.4
  lbstnrhi: 4.7
  visitnum: 5
  visit: VISIT 4
  visitdy: 14
  lbnrind: NORMAL
- !ruby/object:SdtmLb
  studyid: ABC1
  usubjid: ABC1-102-02
  lbseq: 27
  lbtestcd: BUN
  lbtest: Blood Urea Nitrogen (BUN)
  lbstresn: 9.5
  lbstnrlo: 8
  lbstnrhi: 20
  visitnum: 5
  visit: VISIT 4
  visitdy: 14
  lbnrind: NORMAL
- !ruby/object:SdtmLb
  studyid: ABC1
  usubjid: ABC1-102-02
  lbseq: 27
  lbtestcd: CA
  lbtest: Calcium
  lbstresn: 8.73
  lbstnrlo: 8.5
  lbstnrhi: 10.5
  visitnum: 5
  visit: VISIT 4
  visitdy: 14
  lbnrind: NORMAL
- !ruby/object:SdtmLb
  studyid: ABC1
  usubjid: ABC1-102-02
  lbseq: 27
  lbtestcd: GLUC
  lbtest: Glucose
  lbstresn: 74.8
  lbstnrlo: 60
  lbstnrhi: 115
  visitnum: 5
  visit: VISIT 4
  visitdy: 14
  lbnrind: NORMAL
- !ruby/object:SdtmLb
  studyid: ABC1
  usubjid: ABC1-102-02
  lbseq: 28
  lbtestcd: ALB
  lbtest: Albumin
  lbstresn: 4.0
  lbstnrlo: 3.4
  lbstnrhi: 4.7
  visitnum: 6
  visit: VISIT 5
  visitdy: 14
  lbnrind: NORMAL
- !ruby/object:SdtmLb
  studyid: ABC1
  usubjid: ABC1-102-02
  lbseq: 28
  lbtestcd: BUN
  lbtest: Blood Urea Nitrogen (BUN)
  lbstresn: 14.6
  lbstnrlo: 8
  lbstnrhi: 20
  visitnum: 6
  visit: VISIT 5
  visitdy: 14
  lbnrind: NORMAL
- !ruby/object:SdtmLb
  studyid: ABC1
  usubjid: ABC1-102-02
  lbseq: 28
  lbtestcd: CA
  lbtest: Calcium
  lbstresn: 9.32
  lbstnrlo: 8.5
  lbstnrhi: 10.5
  visitnum: 6
  visit: VISIT 5
  visitdy: 14
  lbnrind: NORMAL
- !ruby/object:SdtmLb
  studyid: ABC1
  usubjid: ABC1-102-02
  lbseq: 28
  lbtestcd: GLUC
  lbtest: Glucose
  lbstresn: 77.3
  lbstnrlo: 60
  lbstnrhi: 115
  visitnum: 6
  visit: VISIT 5
  visitdy: 14
  lbnrind: NORMAL
- !ruby/object:SdtmLb
  studyid: ABC1
  usubjid: ABC1-102-02
  lbseq: 29
  lbtestcd: ALB
  lbtest: Albumin
  lbstresn: 4.1
  lbstnrlo: 3.4
  lbstnrhi: 4.7
  visitnum: 7
  visit: VISIT 6
  visitdy: 14
  lbnrind: NORMAL
- !ruby/object:SdtmLb
  studyid: ABC1
  usubjid: ABC1-102-02
  lbseq: 29
  lbtestcd: BUN
  lbtest: Blood Urea Nitrogen (BUN)
  lbstresn: 14.0
  lbstnrlo: 8
  lbstnrhi: 20
  visitnum: 7
  visit: VISIT 6
  visitdy: 14
  lbnrind: NORMAL
- !ruby/object:SdtmLb
  studyid: ABC1
  usubjid: ABC1-102-02
  lbseq: 29
  lbtestcd: CA
  lbtest: Calcium
  lbstresn: 8.62
  lbstnrlo: 8.5
  lbstnrhi: 10.5
  visitnum: 7
  visit: VISIT 6
  visitdy: 14
  lbnrind: NORMAL
- !ruby/object:SdtmLb
  studyid: ABC1
  usubjid: ABC1-102-02
  lbseq: 29
  lbtestcd: GLUC
  lbtest: Glucose
  lbstresn: 83.8
  lbstnrlo: 60
  lbstnrhi: 115
  visitnum: 7
  visit: VISIT 6
  visitdy: 14
  lbnrind: NORMAL
- !ruby/object:SdtmLb
  studyid: ABC1
  usubjid: ABC1-201-01
  lbseq: 30
  lbtestcd: ALB
  lbtest: Albumin
  lbstresn: 4.5
  lbstnrlo: 3.4
  lbstnrhi: 4.7
  visitnum: 1
  visit: SCREENING
  visitdy: 14
  lbnrind: NORMAL
- !ruby/object:SdtmLb
  studyid: ABC1
  usubjid: ABC1-201-01
  lbseq: 30
  lbtestcd: BUN
  lbtest: Blood Urea Nitrogen (BUN)
  lbstresn: 17.9
  lbstnrlo: 8
  lbstnrhi: 20
  visitnum: 1
  visit: SCREENING
  visitdy: 14
  lbnrind: NORMAL
- !ruby/object:SdtmLb
  studyid: ABC1
  usubjid: ABC1-201-01
  lbseq: 30
  lbtestcd: CA
  lbtest: Calcium
  lbstresn: 8.69
  lbstnrlo: 8.5
  lbstnrhi: 10.5
  visitnum: 1
  visit: SCREENING
  visitdy: 14
  lbnrind: NORMAL
- !ruby/object:SdtmLb
  studyid: ABC1
  usubjid: ABC1-201-01
  lbseq: 30
  lbtestcd: GLUC
  lbtest: Glucose
  lbstresn: 79.3
  lbstnrlo: 60
  lbstnrhi: 115
  visitnum: 1
  visit: SCREENING
  visitdy: 14
  lbnrind: NORMAL
- !ruby/object:SdtmLb
  studyid: ABC1
  usubjid: ABC1-201-01
  lbseq: 31
  lbtestcd: ALB
  lbtest: Albumin
  lbstresn: 4.0
  lbstnrlo: 3.4
  lbstnrhi: 4.7
  visitnum: 2
  visit: BASELINE
  visitdy: 14
  lbnrind: NORMAL
- !ruby/object:SdtmLb
  studyid: ABC1
  usubjid: ABC1-201-01
  lbseq: 31
  lbtestcd: BUN
  lbtest: Blood Urea Nitrogen (BUN)
  lbstresn: 11.1
  lbstnrlo: 8
  lbstnrhi: 20
  visitnum: 2
  visit: BASELINE
  visitdy: 14
  lbnrind: NORMAL
- !ruby/object:SdtmLb
  studyid: ABC1
  usubjid: ABC1-201-01
  lbseq: 31
  lbtestcd: CA
  lbtest: Calcium
  lbstresn: 9.37
  lbstnrlo: 8.5
  lbstnrhi: 10.5
  visitnum: 2
  visit: BASELINE
  visitdy: 14
  lbnrind: NORMAL
- !ruby/object:SdtmLb
  studyid: ABC1
  usubjid: ABC1-201-01
  lbseq: 31
  lbtestcd: GLUC
  lbtest: Glucose
  lbstresn: 81.3
  lbstnrlo: 60
  lbstnrhi: 115
  visitnum: 2
  visit: BASELINE
  visitdy: 14
  lbnrind: NORMAL
- !ruby/object:SdtmLb
  studyid: ABC1
  usubjid: ABC1-201-01
  lbseq: 32
  lbtestcd: ALB
  lbtest: Albumin
  lbstresn: 4.1
  lbstnrlo: 3.4
  lbstnrhi: 4.7
  visitnum: 3
  visit: VISIT 2
  visitdy: 14
  lbnrind: NORMAL
- !ruby/object:SdtmLb
  studyid: ABC1
  usubjid: ABC1-201-01
  lbseq: 32
  lbtestcd: BUN
  lbtest: Blood Urea Nitrogen (BUN)
  lbstresn: 11.7
  lbstnrlo: 8
  lbstnrhi: 20
  visitnum: 3
  visit: VISIT 2
  visitdy: 14
  lbnrind: NORMAL
- !ruby/object:SdtmLb
  studyid: ABC1
  usubjid: ABC1-201-01
  lbseq: 32
  lbtestcd: CA
  lbtest: Calcium
  lbstresn: 9.29
  lbstnrlo: 8.5
  lbstnrhi: 10.5
  visitnum: 3
  visit: VISIT 2
  visitdy: 14
  lbnrind: NORMAL
- !ruby/object:SdtmLb
  studyid: ABC1
  usubjid: ABC1-201-01
  lbseq: 32
  lbtestcd: GLUC
  lbtest: Glucose
  lbstresn: 89.1
  lbstnrlo: 60
  lbstnrhi: 115
  visitnum: 3
  visit: VISIT 2
  visitdy: 14
  lbnrind: NORMAL
- !ruby/object:SdtmLb
  studyid: ABC1
  usubjid: ABC1-201-01
  lbseq: 33
  lbtestcd: ALB
  lbtest: Albumin
  lbstresn: 4.0
  lbstnrlo: 3.4
  lbstnrhi: 4.7
  visitnum: 4
  visit: VISIT 3
  visitdy: 14
  lbnrind: NORMAL
- !ruby/object:SdtmLb
  studyid: ABC1
  usubjid: ABC1-201-01
  lbseq: 33
  lbtestcd: BUN
  lbtest: Blood Urea Nitrogen (BUN)
  lbstresn: 10.5
  lbstnrlo: 8
  lbstnrhi: 20
  visitnum: 4
  visit: VISIT 3
  visitdy: 14
  lbnrind: NORMAL
- !ruby/object:SdtmLb
  studyid: ABC1
  usubjid: ABC1-201-01
  lbseq: 33
  lbtestcd: CA
  lbtest: Calcium
  lbstresn: 9.19
  lbstnrlo: 8.5
  lbstnrhi: 10.5
  visitnum: 4
  visit: VISIT 3
  visitdy: 14
  lbnrind: NORMAL
- !ruby/object:SdtmLb
  studyid: ABC1
  usubjid: ABC1-201-01
  lbseq: 33
  lbtestcd: GLUC
  lbtest: Glucose
  lbstresn: 90.8
  lbstnrlo: 60
  lbstnrhi: 115
  visitnum: 4
  visit: VISIT 3
  visitdy: 14
  lbnrind: NORMAL
- !ruby/object:SdtmLb
  studyid: ABC1
  usubjid: ABC1-201-01
  lbseq: 34
  lbtestcd: ALB
  lbtest: Albumin
  lbstresn: 4.0
  lbstnrlo: 3.4
  lbstnrhi: 4.7
  visitnum: 5
  visit: VISIT 4
  visitdy: 14
  lbnrind: NORMAL
- !ruby/object:SdtmLb
  studyid: ABC1
  usubjid: ABC1-201-01
  lbseq: 34
  lbtestcd: BUN
  lbtest: Blood Urea Nitrogen (BUN)
  lbstresn: 12.6
  lbstnrlo: 8
  lbstnrhi: 20
  visitnum: 5
  visit: VISIT 4
  visitdy: 14
  lbnrind: NORMAL
- !ruby/object:SdtmLb
  studyid: ABC1
  usubjid: ABC1-201-01
  lbseq: 34
  lbtestcd: CA
  lbtest: Calcium
  lbstresn: 9.64
  lbstnrlo: 8.5
  lbstnrhi: 10.5
  visitnum: 5
  visit: VISIT 4
  visitdy: 14
  lbnrind: NORMAL
- !ruby/object:SdtmLb
  studyid: ABC1
  usubjid: ABC1-201-01
  lbseq: 34
  lbtestcd: GLUC
  lbtest: Glucose
  lbstresn: 83.5
  lbstnrlo: 60
  lbstnrhi: 115
  visitnum: 5
  visit: VISIT 4
  visitdy: 14
  lbnrind: NORMAL
- !ruby/object:SdtmLb
  studyid: ABC1
  usubjid: ABC1-201-01
  lbseq: 35
  lbtestcd: ALB
  lbtest: Albumin
  lbstresn: 4.2
  lbstnrlo: 3.4
  lbstnrhi: 4.7
  visitnum: 6
  visit: VISIT 5
  visitdy: 14
  lbnrind: NORMAL
- !ruby/object:SdtmLb
  studyid: ABC1
  usubjid: ABC1-201-01
  lbseq: 35
  lbtestcd: BUN
  lbtest: Blood Urea Nitrogen (BUN)
  lbstresn: 15.6
  lbstnrlo: 8
  lbstnrhi: 20
  visitnum: 6
  visit: VISIT 5
  visitdy: 14
  lbnrind: NORMAL
- !ruby/object:SdtmLb
  studyid: ABC1
  usubjid: ABC1-201-01
  lbseq: 35
  lbtestcd: CA
  lbtest: Calcium
  lbstresn: 9.54
  lbstnrlo: 8.5
  lbstnrhi: 10.5
  visitnum: 6
  visit: VISIT 5
  visitdy: 14
  lbnrind: NORMAL
- !ruby/object:SdtmLb
  studyid: ABC1
  usubjid: ABC1-201-01
  lbseq: 35
  lbtestcd: GLUC
  lbtest: Glucose
  lbstresn: 96.6
  lbstnrlo: 60
  lbstnrhi: 115
  visitnum: 6
  visit: VISIT 5
  visitdy: 14
  lbnrind: NORMAL
- !ruby/object:SdtmLb
  studyid: ABC1
  usubjid: ABC1-201-01
  lbseq: 36
  lbtestcd: ALB
  lbtest: Albumin
  lbstresn: 4.5
  lbstnrlo: 3.4
  lbstnrhi: 4.7
  visitnum: 7
  visit: VISIT 6
  visitdy: 14
  lbnrind: NORMAL
- !ruby/object:SdtmLb
  studyid: ABC1
  usubjid: ABC1-201-01
  lbseq: 36
  lbtestcd: BUN
  lbtest: Blood Urea Nitrogen (BUN)
  lbstresn: 9.6
  lbstnrlo: 8
  lbstnrhi: 20
  visitnum: 7
  visit: VISIT 6
  visitdy: 14
  lbnrind: NORMAL
- !ruby/object:SdtmLb
  studyid: ABC1
  usubjid: ABC1-201-01
  lbseq: 36
  lbtestcd: CA
  lbtest: Calcium
  lbstresn: 9.83
  lbstnrlo: 8.5
  lbstnrhi: 10.5
  visitnum: 7
  visit: VISIT 6
  visitdy: 14
  lbnrind: NORMAL
- !ruby/object:SdtmLb
  studyid: ABC1
  usubjid: ABC1-201-01
  lbseq: 36
  lbtestcd: GLUC
  lbtest: Glucose
  lbstresn: 69.2
  lbstnrlo: 60
  lbstnrhi: 115
  visitnum: 7
  visit: VISIT 6
  visitdy: 14
  lbnrind: NORMAL
- !ruby/object:SdtmLb
  studyid: ABC1
  usubjid: ABC1-303-01
  lbseq: 37
  lbtestcd: ALB
  lbtest: Albumin
  lbstresn: 4.2
  lbstnrlo: 3.4
  lbstnrhi: 4.7
  visitnum: 1
  visit: SCREENING
  visitdy: 14
  lbnrind: NORMAL
- !ruby/object:SdtmLb
  studyid: ABC1
  usubjid: ABC1-303-01
  lbseq: 37
  lbtestcd: BUN
  lbtest: Blood Urea Nitrogen (BUN)
  lbstresn: 12.3
  lbstnrlo: 8
  lbstnrhi: 20
  visitnum: 1
  visit: SCREENING
  visitdy: 14
  lbnrind: NORMAL
- !ruby/object:SdtmLb
  studyid: ABC1
  usubjid: ABC1-303-01
  lbseq: 37
  lbtestcd: CA
  lbtest: Calcium
  lbstresn: 9.22
  lbstnrlo: 8.5
  lbstnrhi: 10.5
  visitnum: 1
  visit: SCREENING
  visitdy: 14
  lbnrind: NORMAL
- !ruby/object:SdtmLb
  studyid: ABC1
  usubjid: ABC1-303-01
  lbseq: 37
  lbtestcd: GLUC
  lbtest: Glucose
  lbstresn: 101.0
  lbstnrlo: 60
  lbstnrhi: 115
  visitnum: 1
  visit: SCREENING
  visitdy: 14
  lbnrind: NORMAL
- !ruby/object:SdtmLb
  studyid: ABC1
  usubjid: ABC1-303-01
  lbseq: 38
  lbtestcd: ALB
  lbtest: Albumin
  lbstresn: 4.0
  lbstnrlo: 3.4
  lbstnrhi: 4.7
  visitnum: 2
  visit: BASELINE
  visitdy: 14
  lbnrind: NORMAL
- !ruby/object:SdtmLb
  studyid: ABC1
  usubjid: ABC1-303-01
  lbseq: 38
  lbtestcd: BUN
  lbtest: Blood Urea Nitrogen (BUN)
  lbstresn: 12.1
  lbstnrlo: 8
  lbstnrhi: 20
  visitnum: 2
  visit: BASELINE
  visitdy: 14
  lbnrind: NORMAL
- !ruby/object:SdtmLb
  studyid: ABC1
  usubjid: ABC1-303-01
  lbseq: 38
  lbtestcd: CA
  lbtest: Calcium
  lbstresn: 9.0
  lbstnrlo: 8.5
  lbstnrhi: 10.5
  visitnum: 2
  visit: BASELINE
  visitdy: 14
  lbnrind: NORMAL
- !ruby/object:SdtmLb
  studyid: ABC1
  usubjid: ABC1-303-01
  lbseq: 38
  lbtestcd: GLUC
  lbtest: Glucose
  lbstresn: 57.0
  lbstnrlo: 60
  lbstnrhi: 115
  visitnum: 2
  visit: BASELINE
  visitdy: 14
  lbnrind: LOW
- !ruby/object:SdtmLb
  studyid: ABC1
  usubjid: ABC1-303-01
  lbseq: 39
  lbtestcd: ALB
  lbtest: Albumin
  lbstresn: 3.3
  lbstnrlo: 3.4
  lbstnrhi: 4.7
  visitnum: 3
  visit: VISIT 2
  visitdy: 14
  lbnrind: LOW
- !ruby/object:SdtmLb
  studyid: ABC1
  usubjid: ABC1-303-01
  lbseq: 39
  lbtestcd: BUN
  lbtest: Blood Urea Nitrogen (BUN)
  lbstresn: 17.2
  lbstnrlo: 8
  lbstnrhi: 20
  visitnum: 3
  visit: VISIT 2
  visitdy: 14
  lbnrind: NORMAL
- !ruby/object:SdtmLb
  studyid: ABC1
  usubjid: ABC1-303-01
  lbseq: 39
  lbtestcd: CA
  lbtest: Calcium
  lbstresn: 9.75
  lbstnrlo: 8.5
  lbstnrhi: 10.5
  visitnum: 3
  visit: VISIT 2
  visitdy: 14
  lbnrind: NORMAL
- !ruby/object:SdtmLb
  studyid: ABC1
  usubjid: ABC1-303-01
  lbseq: 39
  lbtestcd: GLUC
  lbtest: Glucose
  lbstresn: 104.8
  lbstnrlo: 60
  lbstnrhi: 115
  visitnum: 3
  visit: VISIT 2
  visitdy: 14
  lbnrind: NORMAL
- !ruby/object:SdtmLb
  studyid: ABC1
  usubjid: ABC1-303-01
  lbseq: 40
  lbtestcd: ALB
  lbtest: Albumin
  lbstresn: 4.0
  lbstnrlo: 3.4
  lbstnrhi: 4.7
  visitnum: 4
  visit: VISIT 3
  visitdy: 14
  lbnrind: NORMAL
- !ruby/object:SdtmLb
  studyid: ABC1
  usubjid: ABC1-303-01
  lbseq: 40
  lbtestcd: BUN
  lbtest: Blood Urea Nitrogen (BUN)
  lbstresn: 15.9
  lbstnrlo: 8
  lbstnrhi: 20
  visitnum: 4
  visit: VISIT 3
  visitdy: 14
  lbnrind: NORMAL
- !ruby/object:SdtmLb
  studyid: ABC1
  usubjid: ABC1-303-01
  lbseq: 40
  lbtestcd: CA
  lbtest: Calcium
  lbstresn: 9.41
  lbstnrlo: 8.5
  lbstnrhi: 10.5
  visitnum: 4
  visit: VISIT 3
  visitdy: 14
  lbnrind: NORMAL
- !ruby/object:SdtmLb
  studyid: ABC1
  usubjid: ABC1-303-01
  lbseq: 40
  lbtestcd: GLUC
  lbtest: Glucose
  lbstresn: 106.2
  lbstnrlo: 60
  lbstnrhi: 115
  visitnum: 4
  visit: VISIT 3
  visitdy: 14
  lbnrind: NORMAL
- !ruby/object:SdtmLb
  studyid: ABC1
  usubjid: ABC1-303-01
  lbseq: 41
  lbtestcd: ALB
  lbtest: Albumin
  lbstresn: 4.0
  lbstnrlo: 3.4
  lbstnrhi: 4.7
  visitnum: 5
  visit: VISIT 4
  visitdy: 14
  lbnrind: NORMAL
- !ruby/object:SdtmLb
  studyid: ABC1
  usubjid: ABC1-303-01
  lbseq: 41
  lbtestcd: BUN
  lbtest: Blood Urea Nitrogen (BUN)
  lbstresn: 16.7
  lbstnrlo: 8
  lbstnrhi: 20
  visitnum: 5
  visit: VISIT 4
  visitdy: 14
  lbnrind: NORMAL
- !ruby/object:SdtmLb
  studyid: ABC1
  usubjid: ABC1-303-01
  lbseq: 41
  lbtestcd: CA
  lbtest: Calcium
  lbstresn: 8.89
  lbstnrlo: 8.5
  lbstnrhi: 10.5
  visitnum: 5
  visit: VISIT 4
  visitdy: 14
  lbnrind: NORMAL
- !ruby/object:SdtmLb
  studyid: ABC1
  usubjid: ABC1-303-01
  lbseq: 41
  lbtestcd: GLUC
  lbtest: Glucose
  lbstresn: 70.1
  lbstnrlo: 60
  lbstnrhi: 115
  visitnum: 5
  visit: VISIT 4
  visitdy: 14
  lbnrind: NORMAL
- !ruby/object:SdtmLb
  studyid: ABC1
  usubjid: ABC1-303-01
  lbseq: 42
  lbtestcd: ALB
  lbtest: Albumin
  lbstresn: 3.7
  lbstnrlo: 3.4
  lbstnrhi: 4.7
  visitnum: 6
  visit: VISIT 5
  visitdy: 14
  lbnrind: NORMAL
- !ruby/object:SdtmLb
  studyid: ABC1
  usubjid: ABC1-303-01
  lbseq: 42
  lbtestcd: BUN
  lbtest: Blood Urea Nitrogen (BUN)
  lbstresn: 15.0
  lbstnrlo: 8
  lbstnrhi: 20
  visitnum: 6
  visit: VISIT 5
  visitdy: 14
  lbnrind: NORMAL
- !ruby/object:SdtmLb
  studyid: ABC1
  usubjid: ABC1-303-01
  lbseq: 42
  lbtestcd: CA
  lbtest: Calcium
  lbstresn: 10.19
  lbstnrlo: 8.5
  lbstnrhi: 10.5
  visitnum: 6
  visit: VISIT 5
  visitdy: 14
  lbnrind: NORMAL
- !ruby/object:SdtmLb
  studyid: ABC1
  usubjid: ABC1-303-01
  lbseq: 42
  lbtestcd: GLUC
  lbtest: Glucose
  lbstresn: 86.8
  lbstnrlo: 60
  lbstnrhi: 115
  visitnum: 6
  visit: VISIT 5
  visitdy: 14
  lbnrind: NORMAL
- !ruby/object:SdtmLb
  studyid: ABC1
  usubjid: ABC1-303-01
  lbseq: 43
  lbtestcd: ALB
  lbtest: Albumin
  lbstresn: 4.4
  lbstnrlo: 3.4
  lbstnrhi: 4.7
  visitnum: 7
  visit: VISIT 6
  visitdy: 14
  lbnrind: NORMAL
- !ruby/object:SdtmLb
  studyid: ABC1
  usubjid: ABC1-303-01
  lbseq: 43
  lbtestcd: BUN
  lbtest: Blood Urea Nitrogen (BUN)
  lbstresn: 12.9
  lbstnrlo: 8
  lbstnrhi: 20
  visitnum: 7
  visit: VISIT 6
  visitdy: 14
  lbnrind: NORMAL
- !ruby/object:SdtmLb
  studyid: ABC1
  usubjid: ABC1-303-01
  lbseq: 43
  lbtestcd: CA
  lbtest: Calcium
  lbstresn: 9.84
  lbstnrlo: 8.5
  lbstnrhi: 10.5
  visitnum: 7
  visit: VISIT 6
  visitdy: 14
  lbnrind: NORMAL
- !ruby/object:SdtmLb
  studyid: ABC1
  usubjid: ABC1-303-01
  lbseq: 43
  lbtestcd: GLUC
  lbtest: Glucose
  lbstresn: 73.1
  lbstnrlo: 60
  lbstnrhi: 115
  visitnum: 7
  visit: VISIT 6
  visitdy: 14
  lbnrind: NORMAL
- !ruby/object:SdtmLb
  studyid: ABC1
  usubjid: ABC1-202-02
  lbseq: 44
  lbtestcd: ALB
  lbtest: Albumin
  lbstresn: 4.1
  lbstnrlo: 3.4
  lbstnrhi: 4.7
  visitnum: 1
  visit: SCREENING
  visitdy: 14
  lbnrind: NORMAL
- !ruby/object:SdtmLb
  studyid: ABC1
  usubjid: ABC1-202-02
  lbseq: 44
  lbtestcd: BUN
  lbtest: Blood Urea Nitrogen (BUN)
  lbstresn: 13.8
  lbstnrlo: 8
  lbstnrhi: 20
  visitnum: 1
  visit: SCREENING
  visitdy: 14
  lbnrind: NORMAL
- !ruby/object:SdtmLb
  studyid: ABC1
  usubjid: ABC1-202-02
  lbseq: 44
  lbtestcd: CA
  lbtest: Calcium
  lbstresn: 9.4
  lbstnrlo: 8.5
  lbstnrhi: 10.5
  visitnum: 1
  visit: SCREENING
  visitdy: 14
  lbnrind: NORMAL
- !ruby/object:SdtmLb
  studyid: ABC1
  usubjid: ABC1-202-02
  lbseq: 44
  lbtestcd: GLUC
  lbtest: Glucose
  lbstresn: 78.5
  lbstnrlo: 60
  lbstnrhi: 115
  visitnum: 1
  visit: SCREENING
  visitdy: 14
  lbnrind: NORMAL
- !ruby/object:SdtmLb
  studyid: ABC1
  usubjid: ABC1-202-02
  lbseq: 45
  lbtestcd: ALB
  lbtest: Albumin
  lbstresn: 4.1
  lbstnrlo: 3.4
  lbstnrhi: 4.7
  visitnum: 2
  visit: BASELINE
  visitdy: 14
  lbnrind: NORMAL
- !ruby/object:SdtmLb
  studyid: ABC1
  usubjid: ABC1-202-02
  lbseq: 45
  lbtestcd: BUN
  lbtest: Blood Urea Nitrogen (BUN)
  lbstresn: 11.7
  lbstnrlo: 8
  lbstnrhi: 20
  visitnum: 2
  visit: BASELINE
  visitdy: 14
  lbnrind: NORMAL
- !ruby/object:SdtmLb
  studyid: ABC1
  usubjid: ABC1-202-02
  lbseq: 45
  lbtestcd: CA
  lbtest: Calcium
  lbstresn: 10.01
  lbstnrlo: 8.5
  lbstnrhi: 10.5
  visitnum: 2
  visit: BASELINE
  visitdy: 14
  lbnrind: NORMAL
- !ruby/object:SdtmLb
  studyid: ABC1
  usubjid: ABC1-202-02
  lbseq: 45
  lbtestcd: GLUC
  lbtest: Glucose
  lbstresn: 74.9
  lbstnrlo: 60
  lbstnrhi: 115
  visitnum: 2
  visit: BASELINE
  visitdy: 14
  lbnrind: NORMAL
- !ruby/object:SdtmLb
  studyid: ABC1
  usubjid: ABC1-202-02
  lbseq: 46
  lbtestcd: ALB
  lbtest: Albumin
  lbstresn: 3.9
  lbstnrlo: 3.4
  lbstnrhi: 4.7
  visitnum: 3
  visit: VISIT 2
  visitdy: 14
  lbnrind: NORMAL
- !ruby/object:SdtmLb
  studyid: ABC1
  usubjid: ABC1-202-02
  lbseq: 46
  lbtestcd: BUN
  lbtest: Blood Urea Nitrogen (BUN)
  lbstresn: 11.1
  lbstnrlo: 8
  lbstnrhi: 20
  visitnum: 3
  visit: VISIT 2
  visitdy: 14
  lbnrind: NORMAL
- !ruby/object:SdtmLb
  studyid: ABC1
  usubjid: ABC1-202-02
  lbseq: 46
  lbtestcd: CA
  lbtest: Calcium
  lbstresn: 9.91
  lbstnrlo: 8.5
  lbstnrhi: 10.5
  visitnum: 3
  visit: VISIT 2
  visitdy: 14
  lbnrind: NORMAL
- !ruby/object:SdtmLb
  studyid: ABC1
  usubjid: ABC1-202-02
  lbseq: 46
  lbtestcd: GLUC
  lbtest: Glucose
  lbstresn: 81.2
  lbstnrlo: 60
  lbstnrhi: 115
  visitnum: 3
  visit: VISIT 2
  visitdy: 14
  lbnrind: NORMAL
- !ruby/object:SdtmLb
  studyid: ABC1
  usubjid: ABC1-202-02
  lbseq: 47
  lbtestcd: ALB
  lbtest: Albumin
  lbstresn: 4.4
  lbstnrlo: 3.4
  lbstnrhi: 4.7
  visitnum: 4
  visit: VISIT 3
  visitdy: 14
  lbnrind: NORMAL
- !ruby/object:SdtmLb
  studyid: ABC1
  usubjid: ABC1-202-02
  lbseq: 47
  lbtestcd: BUN
  lbtest: Blood Urea Nitrogen (BUN)
  lbstresn: 17.4
  lbstnrlo: 8
  lbstnrhi: 20
  visitnum: 4
  visit: VISIT 3
  visitdy: 14
  lbnrind: NORMAL
- !ruby/object:SdtmLb
  studyid: ABC1
  usubjid: ABC1-202-02
  lbseq: 47
  lbtestcd: CA
  lbtest: Calcium
  lbstresn: 9.8
  lbstnrlo: 8.5
  lbstnrhi: 10.5
  visitnum: 4
  visit: VISIT 3
  visitdy: 14
  lbnrind: NORMAL
- !ruby/object:SdtmLb
  studyid: ABC1
  usubjid: ABC1-202-02
  lbseq: 47
  lbtestcd: GLUC
  lbtest: Glucose
  lbstresn: 100.3
  lbstnrlo: 60
  lbstnrhi: 115
  visitnum: 4
  visit: VISIT 3
  visitdy: 14
  lbnrind: NORMAL
- !ruby/object:SdtmLb
  studyid: ABC1
  usubjid: ABC1-202-02
  lbseq: 48
  lbtestcd: ALB
  lbtest: Albumin
  lbstresn: 4.0
  lbstnrlo: 3.4
  lbstnrhi: 4.7
  visitnum: 5
  visit: VISIT 4
  visitdy: 14
  lbnrind: NORMAL
- !ruby/object:SdtmLb
  studyid: ABC1
  usubjid: ABC1-202-02
  lbseq: 48
  lbtestcd: BUN
  lbtest: Blood Urea Nitrogen (BUN)
  lbstresn: 15.4
  lbstnrlo: 8
  lbstnrhi: 20
  visitnum: 5
  visit: VISIT 4
  visitdy: 14
  lbnrind: NORMAL
- !ruby/object:SdtmLb
  studyid: ABC1
  usubjid: ABC1-202-02
  lbseq: 48
  lbtestcd: CA
  lbtest: Calcium
  lbstresn: 8.88
  lbstnrlo: 8.5
  lbstnrhi: 10.5
  visitnum: 5
  visit: VISIT 4
  visitdy: 14
  lbnrind: NORMAL
- !ruby/object:SdtmLb
  studyid: ABC1
  usubjid: ABC1-202-02
  lbseq: 48
  lbtestcd: GLUC
  lbtest: Glucose
  lbstresn: 90.0
  lbstnrlo: 60
  lbstnrhi: 115
  visitnum: 5
  visit: VISIT 4
  visitdy: 14
  lbnrind: NORMAL
- !ruby/object:SdtmLb
  studyid: ABC1
  usubjid: ABC1-202-02
  lbseq: 49
  lbtestcd: ALB
  lbtest: Albumin
  lbstresn: 3.4
  lbstnrlo: 3.4
  lbstnrhi: 4.7
  visitnum: 6
  visit: VISIT 5
  visitdy: 14
  lbnrind: NORMAL
- !ruby/object:SdtmLb
  studyid: ABC1
  usubjid: ABC1-202-02
  lbseq: 49
  lbtestcd: BUN
  lbtest: Blood Urea Nitrogen (BUN)
  lbstresn: 12.8
  lbstnrlo: 8
  lbstnrhi: 20
  visitnum: 6
  visit: VISIT 5
  visitdy: 14
  lbnrind: NORMAL
- !ruby/object:SdtmLb
  studyid: ABC1
  usubjid: ABC1-202-02
  lbseq: 49
  lbtestcd: CA
  lbtest: Calcium
  lbstresn: 10.3
  lbstnrlo: 8.5
  lbstnrhi: 10.5
  visitnum: 6
  visit: VISIT 5
  visitdy: 14
  lbnrind: NORMAL
- !ruby/object:SdtmLb
  studyid: ABC1
  usubjid: ABC1-202-02
  lbseq: 49
  lbtestcd: GLUC
  lbtest: Glucose
  lbstresn: 103.1
  lbstnrlo: 60
  lbstnrhi: 115
  visitnum: 6
  visit: VISIT 5
  visitdy: 14
  lbnrind: NORMAL
- !ruby/object:SdtmLb
  studyid: ABC1
  usubjid: ABC1-202-02
  lbseq: 50
  lbtestcd: ALB
  lbtest: Albumin
  lbstresn: 3.8
  lbstnrlo: 3.4
  lbstnrhi: 4.7
  visitnum: 7
  visit: VISIT 6
  visitdy: 14
  lbnrind: NORMAL
- !ruby/object:SdtmLb
  studyid: ABC1
  usubjid: ABC1-202-02
  lbseq: 50
  lbtestcd: BUN
  lbtest: Blood Urea Nitrogen (BUN)
  lbstresn: 17.8
  lbstnrlo: 8
  lbstnrhi: 20
  visitnum: 7
  visit: VISIT 6
  visitdy: 14
  lbnrind: NORMAL
- !ruby/object:SdtmLb
  studyid: ABC1
  usubjid: ABC1-202-02
  lbseq: 50
  lbtestcd: CA
  lbtest: Calcium
  lbstresn: 9.46
  lbstnrlo: 8.5
  lbstnrhi: 10.5
  visitnum: 7
  visit: VISIT 6
  visitdy: 14
  lbnrind: NORMAL
- !ruby/object:SdtmLb
  studyid: ABC1
  usubjid: ABC1-202-02
  lbseq: 50
  lbtestcd: GLUC
  lbtest: Glucose
  lbstresn: 115.4
  lbstnrlo: 60
  lbstnrhi: 115
  visitnum: 7
  visit: VISIT 6
  visitdy: 14
  lbnrind: HIGH
- !ruby/object:SdtmLb
  studyid: ABC1
  usubjid: ABC1-201-02
  lbseq: 51
  lbtestcd: ALB
  lbtest: Albumin
  lbstresn: 3.2
  lbstnrlo: 3.4
  lbstnrhi: 4.7
  visitnum: 1
  visit: SCREENING
  visitdy: 14
  lbnrind: LOW
- !ruby/object:SdtmLb
  studyid: ABC1
  usubjid: ABC1-201-02
  lbseq: 51
  lbtestcd: BUN
  lbtest: Blood Urea Nitrogen (BUN)
  lbstresn: 11.7
  lbstnrlo: 8
  lbstnrhi: 20
  visitnum: 1
  visit: SCREENING
  visitdy: 14
  lbnrind: NORMAL
- !ruby/object:SdtmLb
  studyid: ABC1
  usubjid: ABC1-201-02
  lbseq: 51
  lbtestcd: CA
  lbtest: Calcium
  lbstresn: 10.08
  lbstnrlo: 8.5
  lbstnrhi: 10.5
  visitnum: 1
  visit: SCREENING
  visitdy: 14
  lbnrind: NORMAL
- !ruby/object:SdtmLb
  studyid: ABC1
  usubjid: ABC1-201-02
  lbseq: 51
  lbtestcd: GLUC
  lbtest: Glucose
  lbstresn: 83.8
  lbstnrlo: 60
  lbstnrhi: 115
  visitnum: 1
  visit: SCREENING
  visitdy: 14
  lbnrind: NORMAL
- !ruby/object:SdtmLb
  studyid: ABC1
  usubjid: ABC1-201-02
  lbseq: 52
  lbtestcd: ALB
  lbtest: Albumin
  lbstresn: 3.6
  lbstnrlo: 3.4
  lbstnrhi: 4.7
  visitnum: 2
  visit: BASELINE
  visitdy: 14
  lbnrind: NORMAL
- !ruby/object:SdtmLb
  studyid: ABC1
  usubjid: ABC1-201-02
  lbseq: 52
  lbtestcd: BUN
  lbtest: Blood Urea Nitrogen (BUN)
  lbstresn: 15.3
  lbstnrlo: 8
  lbstnrhi: 20
  visitnum: 2
  visit: BASELINE
  visitdy: 14
  lbnrind: NORMAL
- !ruby/object:SdtmLb
  studyid: ABC1
  usubjid: ABC1-201-02
  lbseq: 52
  lbtestcd: CA
  lbtest: Calcium
  lbstresn: 9.44
  lbstnrlo: 8.5
  lbstnrhi: 10.5
  visitnum: 2
  visit: BASELINE
  visitdy: 14
  lbnrind: NORMAL
- !ruby/object:SdtmLb
  studyid: ABC1
  usubjid: ABC1-201-02
  lbseq: 52
  lbtestcd: GLUC
  lbtest: Glucose
  lbstresn: 84.7
  lbstnrlo: 60
  lbstnrhi: 115
  visitnum: 2
  visit: BASELINE
  visitdy: 14
  lbnrind: NORMAL
- !ruby/object:SdtmLb
  studyid: ABC1
  usubjid: ABC1-201-03
  lbseq: 53
  lbtestcd: ALB
  lbtest: Albumin
  lbstresn: 3.6
  lbstnrlo: 3.4
  lbstnrhi: 4.7
  visitnum: 1
  visit: SCREENING
  visitdy: 14
  lbnrind: NORMAL
- !ruby/object:SdtmLb
  studyid: ABC1
  usubjid: ABC1-201-03
  lbseq: 53
  lbtestcd: BUN
  lbtest: Blood Urea Nitrogen (BUN)
  lbstresn: 17.1
  lbstnrlo: 8
  lbstnrhi: 20
  visitnum: 1
  visit: SCREENING
  visitdy: 14
  lbnrind: NORMAL
- !ruby/object:SdtmLb
  studyid: ABC1
  usubjid: ABC1-201-03
  lbseq: 53
  lbtestcd: CA
  lbtest: Calcium
  lbstresn: 9.5
  lbstnrlo: 8.5
  lbstnrhi: 10.5
  visitnum: 1
  visit: SCREENING
  visitdy: 14
  lbnrind: NORMAL
- !ruby/object:SdtmLb
  studyid: ABC1
  usubjid: ABC1-201-03
  lbseq: 53
  lbtestcd: GLUC
  lbtest: Glucose
  lbstresn: 86.6
  lbstnrlo: 60
  lbstnrhi: 115
  visitnum: 1
  visit: SCREENING
  visitdy: 14
  lbnrind: NORMAL
- !ruby/object:SdtmLb
  studyid: ABC1
  usubjid: ABC1-202-03
  lbseq: 54
  lbtestcd: ALB
  lbtest: Albumin
  lbstresn: 4.6
  lbstnrlo: 3.4
  lbstnrhi: 4.7
  visitnum: 1
  visit: SCREENING
  visitdy: 14
  lbnrind: NORMAL
- !ruby/object:SdtmLb
  studyid: ABC1
  usubjid: ABC1-202-03
  lbseq: 54
  lbtestcd: BUN
  lbtest: Blood Urea Nitrogen (BUN)
  lbstresn: 17.2
  lbstnrlo: 8
  lbstnrhi: 20
  visitnum: 1
  visit: SCREENING
  visitdy: 14
  lbnrind: NORMAL
- !ruby/object:SdtmLb
  studyid: ABC1
  usubjid: ABC1-202-03
  lbseq: 54
  lbtestcd: CA
  lbtest: Calcium
  lbstresn: 8.8
  lbstnrlo: 8.5
  lbstnrhi: 10.5
  visitnum: 1
  visit: SCREENING
  visitdy: 14
  lbnrind: NORMAL
- !ruby/object:SdtmLb
  studyid: ABC1
  usubjid: ABC1-202-03
  lbseq: 54
  lbtestcd: GLUC
  lbtest: Glucose
  lbstresn: 100.8
  lbstnrlo: 60
  lbstnrhi: 115
  visitnum: 1
  visit: SCREENING
  visitdy: 14
  lbnrind: NORMAL
- !ruby/object:SdtmLb
  studyid: ABC1
  usubjid: ABC1-202-03
  lbseq: 55
  lbtestcd: ALB
  lbtest: Albumin
  lbstresn: 3.6
  lbstnrlo: 3.4
  lbstnrhi: 4.7
  visitnum: 2
  visit: BASELINE
  visitdy: 14
  lbnrind: NORMAL
- !ruby/object:SdtmLb
  studyid: ABC1
  usubjid: ABC1-202-03
  lbseq: 55
  lbtestcd: BUN
  lbtest: Blood Urea Nitrogen (BUN)
  lbstresn: 13.4
  lbstnrlo: 8
  lbstnrhi: 20
  visitnum: 2
  visit: BASELINE
  visitdy: 14
  lbnrind: NORMAL
- !ruby/object:SdtmLb
  studyid: ABC1
  usubjid: ABC1-202-03
  lbseq: 55
  lbtestcd: CA
  lbtest: Calcium
  lbstresn: 9.5
  lbstnrlo: 8.5
  lbstnrhi: 10.5
  visitnum: 2
  visit: BASELINE
  visitdy: 14
  lbnrind: NORMAL
- !ruby/object:SdtmLb
  studyid: ABC1
  usubjid: ABC1-202-03
  lbseq: 55
  lbtestcd: GLUC
  lbtest: Glucose
  lbstresn: 81.0
  lbstnrlo: 60
  lbstnrhi: 115
  visitnum: 2
  visit: BASELINE
  visitdy: 14
  lbnrind: NORMAL
- !ruby/object:SdtmLb
  studyid: ABC1
  usubjid: ABC1-202-03
  lbseq: 56
  lbtestcd: ALB
  lbtest: Albumin
  lbstresn: 4.2
  lbstnrlo: 3.4
  lbstnrhi: 4.7
  visitnum: 3
  visit: VISIT 2
  visitdy: 14
  lbnrind: NORMAL
- !ruby/object:SdtmLb
  studyid: ABC1
  usubjid: ABC1-202-03
  lbseq: 56
  lbtestcd: BUN
  lbtest: Blood Urea Nitrogen (BUN)
  lbstresn: 11.0
  lbstnrlo: 8
  lbstnrhi: 20
  visitnum: 3
  visit: VISIT 2
  visitdy: 14
  lbnrind: NORMAL
- !ruby/object:SdtmLb
  studyid: ABC1
  usubjid: ABC1-202-03
  lbseq: 56
  lbtestcd: CA
  lbtest: Calcium
  lbstresn: 9.05
  lbstnrlo: 8.5
  lbstnrhi: 10.5
  visitnum: 3
  visit: VISIT 2
  visitdy: 14
  lbnrind: NORMAL
- !ruby/object:SdtmLb
  studyid: ABC1
  usubjid: ABC1-202-03
  lbseq: 56
  lbtestcd: GLUC
  lbtest: Glucose
  lbstresn: 101.5
  lbstnrlo: 60
  lbstnrhi: 115
  visitnum: 3
  visit: VISIT 2
  visitdy: 14
  lbnrind: NORMAL
- !ruby/object:SdtmLb
  studyid: ABC1
  usubjid: ABC1-202-03
  lbseq: 57
  lbtestcd: ALB
  lbtest: Albumin
  lbstresn: 4.3
  lbstnrlo: 3.4
  lbstnrhi: 4.7
  visitnum: 4
  visit: VISIT 3
  visitdy: 14
  lbnrind: NORMAL
- !ruby/object:SdtmLb
  studyid: ABC1
  usubjid: ABC1-202-03
  lbseq: 57
  lbtestcd: BUN
  lbtest: Blood Urea Nitrogen (BUN)
  lbstresn: 18.6
  lbstnrlo: 8
  lbstnrhi: 20
  visitnum: 4
  visit: VISIT 3
  visitdy: 14
  lbnrind: NORMAL
- !ruby/object:SdtmLb
  studyid: ABC1
  usubjid: ABC1-202-03
  lbseq: 57
  lbtestcd: CA
  lbtest: Calcium
  lbstresn: 9.55
  lbstnrlo: 8.5
  lbstnrhi: 10.5
  visitnum: 4
  visit: VISIT 3
  visitdy: 14
  lbnrind: NORMAL
- !ruby/object:SdtmLb
  studyid: ABC1
  usubjid: ABC1-202-03
  lbseq: 57
  lbtestcd: GLUC
  lbtest: Glucose
  lbstresn: 98.1
  lbstnrlo: 60
  lbstnrhi: 115
  visitnum: 4
  visit: VISIT 3
  visitdy: 14
  lbnrind: NORMAL
- !ruby/object:SdtmLb
  studyid: ABC1
  usubjid: ABC1-202-03
  lbseq: 58
  lbtestcd: ALB
  lbtest: Albumin
  lbstresn: 3.7
  lbstnrlo: 3.4
  lbstnrhi: 4.7
  visitnum: 5
  visit: VISIT 4
  visitdy: 14
  lbnrind: NORMAL
- !ruby/object:SdtmLb
  studyid: ABC1
  usubjid: ABC1-202-03
  lbseq: 58
  lbtestcd: BUN
  lbtest: Blood Urea Nitrogen (BUN)
  lbstresn: 21.8
  lbstnrlo: 8
  lbstnrhi: 20
  visitnum: 5
  visit: VISIT 4
  visitdy: 14
  lbnrind: HIGH
- !ruby/object:SdtmLb
  studyid: ABC1
  usubjid: ABC1-202-03
  lbseq: 58
  lbtestcd: CA
  lbtest: Calcium
  lbstresn: 9.67
  lbstnrlo: 8.5
  lbstnrhi: 10.5
  visitnum: 5
  visit: VISIT 4
  visitdy: 14
  lbnrind: NORMAL
- !ruby/object:SdtmLb
  studyid: ABC1
  usubjid: ABC1-202-03
  lbseq: 58
  lbtestcd: GLUC
  lbtest: Glucose
  lbstresn: 93.3
  lbstnrlo: 60
  lbstnrhi: 115
  visitnum: 5
  visit: VISIT 4
  visitdy: 14
  lbnrind: NORMAL
- !ruby/object:SdtmLb
  studyid: ABC1
  usubjid: ABC1-202-03
  lbseq: 59
  lbtestcd: ALB
  lbtest: Albumin
  lbstresn: 3.9
  lbstnrlo: 3.4
  lbstnrhi: 4.7
  visitnum: 6
  visit: VISIT 5
  visitdy: 14
  lbnrind: NORMAL
- !ruby/object:SdtmLb
  studyid: ABC1
  usubjid: ABC1-202-03
  lbseq: 59
  lbtestcd: BUN
  lbtest: Blood Urea Nitrogen (BUN)
  lbstresn: 17.5
  lbstnrlo: 8
  lbstnrhi: 20
  visitnum: 6
  visit: VISIT 5
  visitdy: 14
  lbnrind: NORMAL
- !ruby/object:SdtmLb
  studyid: ABC1
  usubjid: ABC1-202-03
  lbseq: 59
  lbtestcd: CA
  lbtest: Calcium
  lbstresn: 9.84
  lbstnrlo: 8.5
  lbstnrhi: 10.5
  visitnum: 6
  visit: VISIT 5
  visitdy: 14
  lbnrind: NORMAL
- !ruby/object:SdtmLb
  studyid: ABC1
  usubjid: ABC1-202-03
  lbseq: 59
  lbtestcd: GLUC
  lbtest: Glucose
  lbstresn: 96.7
  lbstnrlo: 60
  lbstnrhi: 115
  visitnum: 6
  visit: VISIT 5
  visitdy: 14
  lbnrind: NORMAL
- !ruby/object:SdtmLb
  studyid: ABC1
  usubjid: ABC1-202-03
  lbseq: 60
  lbtestcd: ALB
  lbtest: Albumin
  lbstresn: 4.3
  lbstnrlo: 3.4
  lbstnrhi: 4.7
  visitnum: 7
  visit: VISIT 6
  visitdy: 14
  lbnrind: NORMAL
- !ruby/object:SdtmLb
  studyid: ABC1
  usubjid: ABC1-202-03
  lbseq: 60
  lbtestcd: BUN
  lbtest: Blood Urea Nitrogen (BUN)
  lbstresn: 15.5
  lbstnrlo: 8
  lbstnrhi: 20
  visitnum: 7
  visit: VISIT 6
  visitdy: 14
  lbnrind: NORMAL
- !ruby/object:SdtmLb
  studyid: ABC1
  usubjid: ABC1-202-03
  lbseq: 60
  lbtestcd: CA
  lbtest: Calcium
  lbstresn: 9.58
  lbstnrlo: 8.5
  lbstnrhi: 10.5
  visitnum: 7
  visit: VISIT 6
  visitdy: 14
  lbnrind: NORMAL
- !ruby/object:SdtmLb
  studyid: ABC1
  usubjid: ABC1-202-03
  lbseq: 60
  lbtestcd: GLUC
  lbtest: Glucose
  lbstresn: 79.1
  lbstnrlo: 60
  lbstnrhi: 115
  visitnum: 7
  visit: VISIT 6
  visitdy: 14
  lbnrind: NORMAL
- !ruby/object:SdtmLb
  studyid: ABC1
  usubjid: ABC1-101-02
  lbseq: 61
  lbtestcd: ALB
  lbtest: Albumin
  lbstresn: 4.4
  lbstnrlo: 3.4
  lbstnrhi: 4.7
  visitnum: 1
  visit: SCREENING
  visitdy: 14
  lbnrind: NORMAL
- !ruby/object:SdtmLb
  studyid: ABC1
  usubjid: ABC1-101-02
  lbseq: 61
  lbtestcd: BUN
  lbtest: Blood Urea Nitrogen (BUN)
  lbstresn: 13.7
  lbstnrlo: 8
  lbstnrhi: 20
  visitnum: 1
  visit: SCREENING
  visitdy: 14
  lbnrind: NORMAL
- !ruby/object:SdtmLb
  studyid: ABC1
  usubjid: ABC1-101-02
  lbseq: 61
  lbtestcd: CA
  lbtest: Calcium
  lbstresn: 10.2
  lbstnrlo: 8.5
  lbstnrhi: 10.5
  visitnum: 1
  visit: SCREENING
  visitdy: 14
  lbnrind: NORMAL
- !ruby/object:SdtmLb
  studyid: ABC1
  usubjid: ABC1-101-02
  lbseq: 61
  lbtestcd: GLUC
  lbtest: Glucose
  lbstresn: 85.1
  lbstnrlo: 60
  lbstnrhi: 115
  visitnum: 1
  visit: SCREENING
  visitdy: 14
  lbnrind: NORMAL
- !ruby/object:SdtmLb
  studyid: ABC1
  usubjid: ABC1-101-02
  lbseq: 62
  lbtestcd: ALB
  lbtest: Albumin
  lbstresn: 4.1
  lbstnrlo: 3.4
  lbstnrhi: 4.7
  visitnum: 2
  visit: BASELINE
  visitdy: 14
  lbnrind: NORMAL
- !ruby/object:SdtmLb
  studyid: ABC1
  usubjid: ABC1-101-02
  lbseq: 62
  lbtestcd: BUN
  lbtest: Blood Urea Nitrogen (BUN)
  lbstresn: 14.5
  lbstnrlo: 8
  lbstnrhi: 20
  visitnum: 2
  visit: BASELINE
  visitdy: 14
  lbnrind: NORMAL
- !ruby/object:SdtmLb
  studyid: ABC1
  usubjid: ABC1-101-02
  lbseq: 62
  lbtestcd: CA
  lbtest: Calcium
  lbstresn: 9.71
  lbstnrlo: 8.5
  lbstnrhi: 10.5
  visitnum: 2
  visit: BASELINE
  visitdy: 14
  lbnrind: NORMAL
- !ruby/object:SdtmLb
  studyid: ABC1
  usubjid: ABC1-101-02
  lbseq: 62
  lbtestcd: GLUC
  lbtest: Glucose
  lbstresn: 97.9
  lbstnrlo: 60
  lbstnrhi: 115
  visitnum: 2
  visit: BASELINE
  visitdy: 14
  lbnrind: NORMAL
- !ruby/object:SdtmLb
  studyid: ABC1
  usubjid: ABC1-101-02
  lbseq: 63
  lbtestcd: ALB
  lbtest: Albumin
  lbstresn: 4.1
  lbstnrlo: 3.4
  lbstnrhi: 4.7
  visitnum: 3
  visit: VISIT 2
  visitdy: 14
  lbnrind: NORMAL
- !ruby/object:SdtmLb
  studyid: ABC1
  usubjid: ABC1-101-02
  lbseq: 63
  lbtestcd: BUN
  lbtest: Blood Urea Nitrogen (BUN)
  lbstresn: 12.2
  lbstnrlo: 8
  lbstnrhi: 20
  visitnum: 3
  visit: VISIT 2
  visitdy: 14
  lbnrind: NORMAL
- !ruby/object:SdtmLb
  studyid: ABC1
  usubjid: ABC1-101-02
  lbseq: 63
  lbtestcd: CA
  lbtest: Calcium
  lbstresn: 8.68
  lbstnrlo: 8.5
  lbstnrhi: 10.5
  visitnum: 3
  visit: VISIT 2
  visitdy: 14
  lbnrind: NORMAL
- !ruby/object:SdtmLb
  studyid: ABC1
  usubjid: ABC1-101-02
  lbseq: 63
  lbtestcd: GLUC
  lbtest: Glucose
  lbstresn: 81.0
  lbstnrlo: 60
  lbstnrhi: 115
  visitnum: 3
  visit: VISIT 2
  visitdy: 14
  lbnrind: NORMAL
- !ruby/object:SdtmLb
  studyid: ABC1
  usubjid: ABC1-101-02
  lbseq: 64
  lbtestcd: ALB
  lbtest: Albumin
  lbstresn: 4.4
  lbstnrlo: 3.4
  lbstnrhi: 4.7
  visitnum: 4
  visit: VISIT 3
  visitdy: 14
  lbnrind: NORMAL
- !ruby/object:SdtmLb
  studyid: ABC1
  usubjid: ABC1-101-02
  lbseq: 64
  lbtestcd: BUN
  lbtest: Blood Urea Nitrogen (BUN)
  lbstresn: 15.5
  lbstnrlo: 8
  lbstnrhi: 20
  visitnum: 4
  visit: VISIT 3
  visitdy: 14
  lbnrind: NORMAL
- !ruby/object:SdtmLb
  studyid: ABC1
  usubjid: ABC1-101-02
  lbseq: 64
  lbtestcd: CA
  lbtest: Calcium
  lbstresn: 9.16
  lbstnrlo: 8.5
  lbstnrhi: 10.5
  visitnum: 4
  visit: VISIT 3
  visitdy: 14
  lbnrind: NORMAL
- !ruby/object:SdtmLb
  studyid: ABC1
  usubjid: ABC1-101-02
  lbseq: 64
  lbtestcd: GLUC
  lbtest: Glucose
  lbstresn: 97.0
  lbstnrlo: 60
  lbstnrhi: 115
  visitnum: 4
  visit: VISIT 3
  visitdy: 14
  lbnrind: NORMAL
- !ruby/object:SdtmLb
  studyid: ABC1
  usubjid: ABC1-103-02
  lbseq: 65
  lbtestcd: ALB
  lbtest: Albumin
  lbstresn: 3.5
  lbstnrlo: 3.4
  lbstnrhi: 4.7
  visitnum: 1
  visit: SCREENING
  visitdy: 14
  lbnrind: NORMAL
- !ruby/object:SdtmLb
  studyid: ABC1
  usubjid: ABC1-103-02
  lbseq: 65
  lbtestcd: BUN
  lbtest: Blood Urea Nitrogen (BUN)
  lbstresn: 19.8
  lbstnrlo: 8
  lbstnrhi: 20
  visitnum: 1
  visit: SCREENING
  visitdy: 14
  lbnrind: NORMAL
- !ruby/object:SdtmLb
  studyid: ABC1
  usubjid: ABC1-103-02
  lbseq: 65
  lbtestcd: CA
  lbtest: Calcium
  lbstresn: 9.72
  lbstnrlo: 8.5
  lbstnrhi: 10.5
  visitnum: 1
  visit: SCREENING
  visitdy: 14
  lbnrind: NORMAL
- !ruby/object:SdtmLb
  studyid: ABC1
  usubjid: ABC1-103-02
  lbseq: 65
  lbtestcd: GLUC
  lbtest: Glucose
  lbstresn: 77.6
  lbstnrlo: 60
  lbstnrhi: 115
  visitnum: 1
  visit: SCREENING
  visitdy: 14
  lbnrind: NORMAL
- !ruby/object:SdtmLb
  studyid: ABC1
  usubjid: ABC1-103-02
  lbseq: 66
  lbtestcd: ALB
  lbtest: Albumin
  lbstresn: 4.0
  lbstnrlo: 3.4
  lbstnrhi: 4.7
  visitnum: 2
  visit: BASELINE
  visitdy: 14
  lbnrind: NORMAL
- !ruby/object:SdtmLb
  studyid: ABC1
  usubjid: ABC1-103-02
  lbseq: 66
  lbtestcd: BUN
  lbtest: Blood Urea Nitrogen (BUN)
  lbstresn: 14.4
  lbstnrlo: 8
  lbstnrhi: 20
  visitnum: 2
  visit: BASELINE
  visitdy: 14
  lbnrind: NORMAL
- !ruby/object:SdtmLb
  studyid: ABC1
  usubjid: ABC1-103-02
  lbseq: 66
  lbtestcd: CA
  lbtest: Calcium
  lbstresn: 9.62
  lbstnrlo: 8.5
  lbstnrhi: 10.5
  visitnum: 2
  visit: BASELINE
  visitdy: 14
  lbnrind: NORMAL
- !ruby/object:SdtmLb
  studyid: ABC1
  usubjid: ABC1-103-02
  lbseq: 66
  lbtestcd: GLUC
  lbtest: Glucose
  lbstresn: 90.3
  lbstnrlo: 60
  lbstnrhi: 115
  visitnum: 2
  visit: BASELINE
  visitdy: 14
  lbnrind: NORMAL
- !ruby/object:SdtmLb
  studyid: ABC1
  usubjid: ABC1-103-02
  lbseq: 67
  lbtestcd: ALB
  lbtest: Albumin
  lbstresn: 3.9
  lbstnrlo: 3.4
  lbstnrhi: 4.7
  visitnum: 3
  visit: VISIT 2
  visitdy: 14
  lbnrind: NORMAL
- !ruby/object:SdtmLb
  studyid: ABC1
  usubjid: ABC1-103-02
  lbseq: 67
  lbtestcd: BUN
  lbtest: Blood Urea Nitrogen (BUN)
  lbstresn: 11.9
  lbstnrlo: 8
  lbstnrhi: 20
  visitnum: 3
  visit: VISIT 2
  visitdy: 14
  lbnrind: NORMAL
- !ruby/object:SdtmLb
  studyid: ABC1
  usubjid: ABC1-103-02
  lbseq: 67
  lbtestcd: CA
  lbtest: Calcium
  lbstresn: 9.84
  lbstnrlo: 8.5
  lbstnrhi: 10.5
  visitnum: 3
  visit: VISIT 2
  visitdy: 14
  lbnrind: NORMAL
- !ruby/object:SdtmLb
  studyid: ABC1
  usubjid: ABC1-103-02
  lbseq: 67
  lbtestcd: GLUC
  lbtest: Glucose
  lbstresn: 60.7
  lbstnrlo: 60
  lbstnrhi: 115
  visitnum: 3
  visit: VISIT 2
  visitdy: 14
  lbnrind: NORMAL
- !ruby/object:SdtmLb
  studyid: ABC1
  usubjid: ABC1-103-02
  lbseq: 68
  lbtestcd: ALB
  lbtest: Albumin
  lbstresn: 4.0
  lbstnrlo: 3.4
  lbstnrhi: 4.7
  visitnum: 4
  visit: VISIT 3
  visitdy: 14
  lbnrind: NORMAL
- !ruby/object:SdtmLb
  studyid: ABC1
  usubjid: ABC1-103-02
  lbseq: 68
  lbtestcd: BUN
  lbtest: Blood Urea Nitrogen (BUN)
  lbstresn: 15.9
  lbstnrlo: 8
  lbstnrhi: 20
  visitnum: 4
  visit: VISIT 3
  visitdy: 14
  lbnrind: NORMAL
- !ruby/object:SdtmLb
  studyid: ABC1
  usubjid: ABC1-103-02
  lbseq: 68
  lbtestcd: CA
  lbtest: Calcium
  lbstresn: 10.42
  lbstnrlo: 8.5
  lbstnrhi: 10.5
  visitnum: 4
  visit: VISIT 3
  visitdy: 14
  lbnrind: NORMAL
- !ruby/object:SdtmLb
  studyid: ABC1
  usubjid: ABC1-103-02
  lbseq: 68
  lbtestcd: GLUC
  lbtest: Glucose
  lbstresn: 85.3
  lbstnrlo: 60
  lbstnrhi: 115
  visitnum: 4
  visit: VISIT 3
  visitdy: 14
  lbnrind: NORMAL
- !ruby/object:SdtmLb
  studyid: ABC1
  usubjid: ABC1-103-02
  lbseq: 69
  lbtestcd: ALB
  lbtest: Albumin
  lbstresn: 4.0
  lbstnrlo: 3.4
  lbstnrhi: 4.7
  visitnum: 5
  visit: VISIT 4
  visitdy: 14
  lbnrind: NORMAL
- !ruby/object:SdtmLb
  studyid: ABC1
  usubjid: ABC1-103-02
  lbseq: 69
  lbtestcd: BUN
  lbtest: Blood Urea Nitrogen (BUN)
  lbstresn: 16.2
  lbstnrlo: 8
  lbstnrhi: 20
  visitnum: 5
  visit: VISIT 4
  visitdy: 14
  lbnrind: NORMAL
- !ruby/object:SdtmLb
  studyid: ABC1
  usubjid: ABC1-103-02
  lbseq: 69
  lbtestcd: CA
  lbtest: Calcium
  lbstresn: 9.88
  lbstnrlo: 8.5
  lbstnrhi: 10.5
  visitnum: 5
  visit: VISIT 4
  visitdy: 14
  lbnrind: NORMAL
- !ruby/object:SdtmLb
  studyid: ABC1
  usubjid: ABC1-103-02
  lbseq: 69
  lbtestcd: GLUC
  lbtest: Glucose
  lbstresn: 85.9
  lbstnrlo: 60
  lbstnrhi: 115
  visitnum: 5
  visit: VISIT 4
  visitdy: 14
  lbnrind: NORMAL
- !ruby/object:SdtmLb
  studyid: ABC1
  usubjid: ABC1-103-02
  lbseq: 70
  lbtestcd: ALB
  lbtest: Albumin
  lbstresn: 3.6
  lbstnrlo: 3.4
  lbstnrhi: 4.7
  visitnum: 6
  visit: VISIT 5
  visitdy: 14
  lbnrind: NORMAL
- !ruby/object:SdtmLb
  studyid: ABC1
  usubjid: ABC1-103-02
  lbseq: 70
  lbtestcd: BUN
  lbtest: Blood Urea Nitrogen (BUN)
  lbstresn: 11.1
  lbstnrlo: 8
  lbstnrhi: 20
  visitnum: 6
  visit: VISIT 5
  visitdy: 14
  lbnrind: NORMAL
- !ruby/object:SdtmLb
  studyid: ABC1
  usubjid: ABC1-103-02
  lbseq: 70
  lbtestcd: CA
  lbtest: Calcium
  lbstresn: 9.28
  lbstnrlo: 8.5
  lbstnrhi: 10.5
  visitnum: 6
  visit: VISIT 5
  visitdy: 14
  lbnrind: NORMAL
- !ruby/object:SdtmLb
  studyid: ABC1
  usubjid: ABC1-103-02
  lbseq: 70
  lbtestcd: GLUC
  lbtest: Glucose
  lbstresn: 67.3
  lbstnrlo: 60
  lbstnrhi: 115
  visitnum: 6
  visit: VISIT 5
  visitdy: 14
  lbnrind: NORMAL
- !ruby/object:SdtmLb
  studyid: ABC1
  usubjid: ABC1-103-02
  lbseq: 71
  lbtestcd: ALB
  lbtest: Albumin
  lbstresn: 4.0
  lbstnrlo: 3.4
  lbstnrhi: 4.7
  visitnum: 7
  visit: VISIT 6
  visitdy: 14
  lbnrind: NORMAL
- !ruby/object:SdtmLb
  studyid: ABC1
  usubjid: ABC1-103-02
  lbseq: 71
  lbtestcd: BUN
  lbtest: Blood Urea Nitrogen (BUN)
  lbstresn: 16.3
  lbstnrlo: 8
  lbstnrhi: 20
  visitnum: 7
  visit: VISIT 6
  visitdy: 14
  lbnrind: NORMAL
- !ruby/object:SdtmLb
  studyid: ABC1
  usubjid: ABC1-103-02
  lbseq: 71
  lbtestcd: CA
  lbtest: Calcium
  lbstresn: 8.8
  lbstnrlo: 8.5
  lbstnrhi: 10.5
  visitnum: 7
  visit: VISIT 6
  visitdy: 14
  lbnrind: NORMAL
- !ruby/object:SdtmLb
  studyid: ABC1
  usubjid: ABC1-103-02
  lbseq: 71
  lbtestcd: GLUC
  lbtest: Glucose
  lbstresn: 65.7
  lbstnrlo: 60
  lbstnrhi: 115
  visitnum: 7
  visit: VISIT 6
  visitdy: 14
  lbnrind: NORMAL
- !ruby/object:SdtmLb
  studyid: ABC1
  usubjid: ABC1-102-03
  lbseq: 72
  lbtestcd: ALB
  lbtest: Albumin
  lbstresn: 4.2
  lbstnrlo: 3.4
  lbstnrhi: 4.7
  visitnum: 1
  visit: SCREENING
  visitdy: 14
  lbnrind: NORMAL
- !ruby/object:SdtmLb
  studyid: ABC1
  usubjid: ABC1-102-03
  lbseq: 72
  lbtestcd: BUN
  lbtest: Blood Urea Nitrogen (BUN)
  lbstresn: 12.5
  lbstnrlo: 8
  lbstnrhi: 20
  visitnum: 1
  visit: SCREENING
  visitdy: 14
  lbnrind: NORMAL
- !ruby/object:SdtmLb
  studyid: ABC1
  usubjid: ABC1-102-03
  lbseq: 72
  lbtestcd: CA
  lbtest: Calcium
  lbstresn: 9.72
  lbstnrlo: 8.5
  lbstnrhi: 10.5
  visitnum: 1
  visit: SCREENING
  visitdy: 14
  lbnrind: NORMAL
- !ruby/object:SdtmLb
  studyid: ABC1
  usubjid: ABC1-102-03
  lbseq: 72
  lbtestcd: GLUC
  lbtest: Glucose
  lbstresn: 70.9
  lbstnrlo: 60
  lbstnrhi: 115
  visitnum: 1
  visit: SCREENING
  visitdy: 14
  lbnrind: NORMAL
- !ruby/object:SdtmLb
  studyid: ABC1
  usubjid: ABC1-301-03
  lbseq: 73
  lbtestcd: ALB
  lbtest: Albumin
  lbstresn: 4.5
  lbstnrlo: 3.4
  lbstnrhi: 4.7
  visitnum: 1
  visit: SCREENING
  visitdy: 14
  lbnrind: NORMAL
- !ruby/object:SdtmLb
  studyid: ABC1
  usubjid: ABC1-301-03
  lbseq: 73
  lbtestcd: BUN
  lbtest: Blood Urea Nitrogen (BUN)
  lbstresn: 14.4
  lbstnrlo: 8
  lbstnrhi: 20
  visitnum: 1
  visit: SCREENING
  visitdy: 14
  lbnrind: NORMAL
- !ruby/object:SdtmLb
  studyid: ABC1
  usubjid: ABC1-301-03
  lbseq: 73
  lbtestcd: CA
  lbtest: Calcium
  lbstresn: 10.31
  lbstnrlo: 8.5
  lbstnrhi: 10.5
  visitnum: 1
  visit: SCREENING
  visitdy: 14
  lbnrind: NORMAL
- !ruby/object:SdtmLb
  studyid: ABC1
  usubjid: ABC1-301-03
  lbseq: 73
  lbtestcd: GLUC
  lbtest: Glucose
  lbstresn: 85.4
  lbstnrlo: 60
  lbstnrhi: 115
  visitnum: 1
  visit: SCREENING
  visitdy: 14
  lbnrind: NORMAL
- !ruby/object:SdtmLb
  studyid: ABC1
  usubjid: ABC1-301-03
  lbseq: 74
  lbtestcd: ALB
  lbtest: Albumin
  lbstresn: 3.7
  lbstnrlo: 3.4
  lbstnrhi: 4.7
  visitnum: 2
  visit: BASELINE
  visitdy: 14
  lbnrind: NORMAL
- !ruby/object:SdtmLb
  studyid: ABC1
  usubjid: ABC1-301-03
  lbseq: 74
  lbtestcd: BUN
  lbtest: Blood Urea Nitrogen (BUN)
  lbstresn: 16.2
  lbstnrlo: 8
  lbstnrhi: 20
  visitnum: 2
  visit: BASELINE
  visitdy: 14
  lbnrind: NORMAL
- !ruby/object:SdtmLb
  studyid: ABC1
  usubjid: ABC1-301-03
  lbseq: 74
  lbtestcd: CA
  lbtest: Calcium
  lbstresn: 9.23
  lbstnrlo: 8.5
  lbstnrhi: 10.5
  visitnum: 2
  visit: BASELINE
  visitdy: 14
  lbnrind: NORMAL
- !ruby/object:SdtmLb
  studyid: ABC1
  usubjid: ABC1-301-03
  lbseq: 74
  lbtestcd: GLUC
  lbtest: Glucose
  lbstresn: 86.1
  lbstnrlo: 60
  lbstnrhi: 115
  visitnum: 2
  visit: BASELINE
  visitdy: 14
  lbnrind: NORMAL
- !ruby/object:SdtmLb
  studyid: ABC1
  usubjid: ABC1-301-03
  lbseq: 75
  lbtestcd: ALB
  lbtest: Albumin
  lbstresn: 4.3
  lbstnrlo: 3.4
  lbstnrhi: 4.7
  visitnum: 3
  visit: VISIT 2
  visitdy: 14
  lbnrind: NORMAL
- !ruby/object:SdtmLb
  studyid: ABC1
  usubjid: ABC1-301-03
  lbseq: 75
  lbtestcd: BUN
  lbtest: Blood Urea Nitrogen (BUN)
  lbstresn: 14.5
  lbstnrlo: 8
  lbstnrhi: 20
  visitnum: 3
  visit: VISIT 2
  visitdy: 14
  lbnrind: NORMAL
- !ruby/object:SdtmLb
  studyid: ABC1
  usubjid: ABC1-301-03
  lbseq: 75
  lbtestcd: CA
  lbtest: Calcium
  lbstresn: 9.72
  lbstnrlo: 8.5
  lbstnrhi: 10.5
  visitnum: 3
  visit: VISIT 2
  visitdy: 14
  lbnrind: NORMAL
- !ruby/object:SdtmLb
  studyid: ABC1
  usubjid: ABC1-301-03
  lbseq: 75
  lbtestcd: GLUC
  lbtest: Glucose
  lbstresn: 73.2
  lbstnrlo: 60
  lbstnrhi: 115
  visitnum: 3
  visit: VISIT 2
  visitdy: 14
  lbnrind: NORMAL
- !ruby/object:SdtmLb
  studyid: ABC1
  usubjid: ABC1-301-03
  lbseq: 76
  lbtestcd: ALB
  lbtest: Albumin
  lbstresn: 4.0
  lbstnrlo: 3.4
  lbstnrhi: 4.7
  visitnum: 4
  visit: VISIT 3
  visitdy: 14
  lbnrind: NORMAL
- !ruby/object:SdtmLb
  studyid: ABC1
  usubjid: ABC1-301-03
  lbseq: 76
  lbtestcd: BUN
  lbtest: Blood Urea Nitrogen (BUN)
  lbstresn: 15.0
  lbstnrlo: 8
  lbstnrhi: 20
  visitnum: 4
  visit: VISIT 3
  visitdy: 14
  lbnrind: NORMAL
- !ruby/object:SdtmLb
  studyid: ABC1
  usubjid: ABC1-301-03
  lbseq: 76
  lbtestcd: CA
  lbtest: Calcium
  lbstresn: 8.91
  lbstnrlo: 8.5
  lbstnrhi: 10.5
  visitnum: 4
  visit: VISIT 3
  visitdy: 14
  lbnrind: NORMAL
- !ruby/object:SdtmLb
  studyid: ABC1
  usubjid: ABC1-301-03
  lbseq: 76
  lbtestcd: GLUC
  lbtest: Glucose
  lbstresn: 88.4
  lbstnrlo: 60
  lbstnrhi: 115
  visitnum: 4
  visit: VISIT 3
  visitdy: 14
  lbnrind: NORMAL
- !ruby/object:SdtmLb
  studyid: ABC1
  usubjid: ABC1-301-03
  lbseq: 77
  lbtestcd: ALB
  lbtest: Albumin
  lbstresn: 4.1
  lbstnrlo: 3.4
  lbstnrhi: 4.7
  visitnum: 5
  visit: VISIT 4
  visitdy: 14
  lbnrind: NORMAL
- !ruby/object:SdtmLb
  studyid: ABC1
  usubjid: ABC1-301-03
  lbseq: 77
  lbtestcd: BUN
  lbtest: Blood Urea Nitrogen (BUN)
  lbstresn: 13.9
  lbstnrlo: 8
  lbstnrhi: 20
  visitnum: 5
  visit: VISIT 4
  visitdy: 14
  lbnrind: NORMAL
- !ruby/object:SdtmLb
  studyid: ABC1
  usubjid: ABC1-301-03
  lbseq: 77
  lbtestcd: CA
  lbtest: Calcium
  lbstresn: 9.29
  lbstnrlo: 8.5
  lbstnrhi: 10.5
  visitnum: 5
  visit: VISIT 4
  visitdy: 14
  lbnrind: NORMAL
- !ruby/object:SdtmLb
  studyid: ABC1
  usubjid: ABC1-301-03
  lbseq: 77
  lbtestcd: GLUC
  lbtest: Glucose
  lbstresn: 84.9
  lbstnrlo: 60
  lbstnrhi: 115
  visitnum: 5
  visit: VISIT 4
  visitdy: 14
  lbnrind: NORMAL
- !ruby/object:SdtmLb
  studyid: ABC1
  usubjid: ABC1-301-03
  lbseq: 78
  lbtestcd: ALB
  lbtest: Albumin
  lbstresn: 4.3
  lbstnrlo: 3.4
  lbstnrhi: 4.7
  visitnum: 6
  visit: VISIT 5
  visitdy: 14
  lbnrind: NORMAL
- !ruby/object:SdtmLb
  studyid: ABC1
  usubjid: ABC1-301-03
  lbseq: 78
  lbtestcd: BUN
  lbtest: Blood Urea Nitrogen (BUN)
  lbstresn: 16.8
  lbstnrlo: 8
  lbstnrhi: 20
  visitnum: 6
  visit: VISIT 5
  visitdy: 14
  lbnrind: NORMAL
- !ruby/object:SdtmLb
  studyid: ABC1
  usubjid: ABC1-301-03
  lbseq: 78
  lbtestcd: CA
  lbtest: Calcium
  lbstresn: 9.77
  lbstnrlo: 8.5
  lbstnrhi: 10.5
  visitnum: 6
  visit: VISIT 5
  visitdy: 14
  lbnrind: NORMAL
- !ruby/object:SdtmLb
  studyid: ABC1
  usubjid: ABC1-301-03
  lbseq: 78
  lbtestcd: GLUC
  lbtest: Glucose
  lbstresn: 93.9
  lbstnrlo: 60
  lbstnrhi: 115
  visitnum: 6
  visit: VISIT 5
  visitdy: 14
  lbnrind: NORMAL
- !ruby/object:SdtmLb
  studyid: ABC1
  usubjid: ABC1-102-04
  lbseq: 79
  lbtestcd: ALB
  lbtest: Albumin
  lbstresn: 4.1
  lbstnrlo: 3.4
  lbstnrhi: 4.7
  visitnum: 1
  visit: SCREENING
  visitdy: 14
  lbnrind: NORMAL
- !ruby/object:SdtmLb
  studyid: ABC1
  usubjid: ABC1-102-04
  lbseq: 79
  lbtestcd: BUN
  lbtest: Blood Urea Nitrogen (BUN)
  lbstresn: 13.4
  lbstnrlo: 8
  lbstnrhi: 20
  visitnum: 1
  visit: SCREENING
  visitdy: 14
  lbnrind: NORMAL
- !ruby/object:SdtmLb
  studyid: ABC1
  usubjid: ABC1-102-04
  lbseq: 79
  lbtestcd: CA
  lbtest: Calcium
  lbstresn: 9.5
  lbstnrlo: 8.5
  lbstnrhi: 10.5
  visitnum: 1
  visit: SCREENING
  visitdy: 14
  lbnrind: NORMAL
- !ruby/object:SdtmLb
  studyid: ABC1
  usubjid: ABC1-102-04
  lbseq: 79
  lbtestcd: GLUC
  lbtest: Glucose
  lbstresn: 73.1
  lbstnrlo: 60
  lbstnrhi: 115
  visitnum: 1
  visit: SCREENING
  visitdy: 14
  lbnrind: NORMAL
- !ruby/object:SdtmLb
  studyid: ABC1
  usubjid: ABC1-102-04
  lbseq: 80
  lbtestcd: ALB
  lbtest: Albumin
  lbstresn: 4.7
  lbstnrlo: 3.4
  lbstnrhi: 4.7
  visitnum: 2
  visit: BASELINE
  visitdy: 14
  lbnrind: NORMAL
- !ruby/object:SdtmLb
  studyid: ABC1
  usubjid: ABC1-102-04
  lbseq: 80
  lbtestcd: BUN
  lbtest: Blood Urea Nitrogen (BUN)
  lbstresn: 14.8
  lbstnrlo: 8
  lbstnrhi: 20
  visitnum: 2
  visit: BASELINE
  visitdy: 14
  lbnrind: NORMAL
- !ruby/object:SdtmLb
  studyid: ABC1
  usubjid: ABC1-102-04
  lbseq: 80
  lbtestcd: CA
  lbtest: Calcium
  lbstresn: 9.27
  lbstnrlo: 8.5
  lbstnrhi: 10.5
  visitnum: 2
  visit: BASELINE
  visitdy: 14
  lbnrind: NORMAL
- !ruby/object:SdtmLb
  studyid: ABC1
  usubjid: ABC1-102-04
  lbseq: 80
  lbtestcd: GLUC
  lbtest: Glucose
  lbstresn: 87.9
  lbstnrlo: 60
  lbstnrhi: 115
  visitnum: 2
  visit: BASELINE
  visitdy: 14
  lbnrind: NORMAL
- !ruby/object:SdtmLb
  studyid: ABC1
  usubjid: ABC1-202-04
  lbseq: 81
  lbtestcd: ALB
  lbtest: Albumin
  lbstresn: 3.5
  lbstnrlo: 3.4
  lbstnrhi: 4.7
  visitnum: 1
  visit: SCREENING
  visitdy: 14
  lbnrind: NORMAL
- !ruby/object:SdtmLb
  studyid: ABC1
  usubjid: ABC1-202-04
  lbseq: 81
  lbtestcd: BUN
  lbtest: Blood Urea Nitrogen (BUN)
  lbstresn: 8.7
  lbstnrlo: 8
  lbstnrhi: 20
  visitnum: 1
  visit: SCREENING
  visitdy: 14
  lbnrind: NORMAL
- !ruby/object:SdtmLb
  studyid: ABC1
  usubjid: ABC1-202-04
  lbseq: 81
  lbtestcd: CA
  lbtest: Calcium
  lbstresn: 9.91
  lbstnrlo: 8.5
  lbstnrhi: 10.5
  visitnum: 1
  visit: SCREENING
  visitdy: 14
  lbnrind: NORMAL
- !ruby/object:SdtmLb
  studyid: ABC1
  usubjid: ABC1-202-04
  lbseq: 81
  lbtestcd: GLUC
  lbtest: Glucose
  lbstresn: 87.3
  lbstnrlo: 60
  lbstnrhi: 115
  visitnum: 1
  visit: SCREENING
  visitdy: 14
  lbnrind: NORMAL
- !ruby/object:SdtmLb
  studyid: ABC1
  usubjid: ABC1-202-04
  lbseq: 82
  lbtestcd: ALB
  lbtest: Albumin
  lbstresn: 4.3
  lbstnrlo: 3.4
  lbstnrhi: 4.7
  visitnum: 2
  visit: BASELINE
  visitdy: 14
  lbnrind: NORMAL
- !ruby/object:SdtmLb
  studyid: ABC1
  usubjid: ABC1-202-04
  lbseq: 82
  lbtestcd: BUN
  lbtest: Blood Urea Nitrogen (BUN)
  lbstresn: 15.2
  lbstnrlo: 8
  lbstnrhi: 20
  visitnum: 2
  visit: BASELINE
  visitdy: 14
  lbnrind: NORMAL
- !ruby/object:SdtmLb
  studyid: ABC1
  usubjid: ABC1-202-04
  lbseq: 82
  lbtestcd: CA
  lbtest: Calcium
  lbstresn: 10.38
  lbstnrlo: 8.5
  lbstnrhi: 10.5
  visitnum: 2
  visit: BASELINE
  visitdy: 14
  lbnrind: NORMAL
- !ruby/object:SdtmLb
  studyid: ABC1
  usubjid: ABC1-202-04
  lbseq: 82
  lbtestcd: GLUC
  lbtest: Glucose
  lbstresn: 96.4
  lbstnrlo: 60
  lbstnrhi: 115
  visitnum: 2
  visit: BASELINE
  visitdy: 14
  lbnrind: NORMAL
- !ruby/object:SdtmLb
  studyid: ABC1
  usubjid: ABC1-202-04
  lbseq: 83
  lbtestcd: ALB
  lbtest: Albumin
  lbstresn: 4.3
  lbstnrlo: 3.4
  lbstnrhi: 4.7
  visitnum: 3
  visit: VISIT 2
  visitdy: 14
  lbnrind: NORMAL
- !ruby/object:SdtmLb
  studyid: ABC1
  usubjid: ABC1-202-04
  lbseq: 83
  lbtestcd: BUN
  lbtest: Blood Urea Nitrogen (BUN)
  lbstresn: 19.6
  lbstnrlo: 8
  lbstnrhi: 20
  visitnum: 3
  visit: VISIT 2
  visitdy: 14
  lbnrind: NORMAL
- !ruby/object:SdtmLb
  studyid: ABC1
  usubjid: ABC1-202-04
  lbseq: 83
  lbtestcd: CA
  lbtest: Calcium
  lbstresn: 10.01
  lbstnrlo: 8.5
  lbstnrhi: 10.5
  visitnum: 3
  visit: VISIT 2
  visitdy: 14
  lbnrind: NORMAL
- !ruby/object:SdtmLb
  studyid: ABC1
  usubjid: ABC1-202-04
  lbseq: 83
  lbtestcd: GLUC
  lbtest: Glucose
  lbstresn: 91.6
  lbstnrlo: 60
  lbstnrhi: 115
  visitnum: 3
  visit: VISIT 2
  visitdy: 14
  lbnrind: NORMAL
- !ruby/object:SdtmLb
  studyid: ABC1
  usubjid: ABC1-202-04
  lbseq: 84
  lbtestcd: ALB
  lbtest: Albumin
  lbstresn: 3.8
  lbstnrlo: 3.4
  lbstnrhi: 4.7
  visitnum: 4
  visit: VISIT 3
  visitdy: 14
  lbnrind: NORMAL
- !ruby/object:SdtmLb
  studyid: ABC1
  usubjid: ABC1-202-04
  lbseq: 84
  lbtestcd: BUN
  lbtest: Blood Urea Nitrogen (BUN)
  lbstresn: 16.0
  lbstnrlo: 8
  lbstnrhi: 20
  visitnum: 4
  visit: VISIT 3
  visitdy: 14
  lbnrind: NORMAL
- !ruby/object:SdtmLb
  studyid: ABC1
  usubjid: ABC1-202-04
  lbseq: 84
  lbtestcd: CA
  lbtest: Calcium
  lbstresn: 9.11
  lbstnrlo: 8.5
  lbstnrhi: 10.5
  visitnum: 4
  visit: VISIT 3
  visitdy: 14
  lbnrind: NORMAL
- !ruby/object:SdtmLb
  studyid: ABC1
  usubjid: ABC1-202-04
  lbseq: 84
  lbtestcd: GLUC
  lbtest: Glucose
  lbstresn: 78.1
  lbstnrlo: 60
  lbstnrhi: 115
  visitnum: 4
  visit: VISIT 3
  visitdy: 14
  lbnrind: NORMAL
- !ruby/object:SdtmLb
  studyid: ABC1
  usubjid: ABC1-303-02
  lbseq: 85
  lbtestcd: ALB
  lbtest: Albumin
  lbstresn: 3.8
  lbstnrlo: 3.4
  lbstnrhi: 4.7
  visitnum: 1
  visit: SCREENING
  visitdy: 14
  lbnrind: NORMAL
- !ruby/object:SdtmLb
  studyid: ABC1
  usubjid: ABC1-303-02
  lbseq: 85
  lbtestcd: BUN
  lbtest: Blood Urea Nitrogen (BUN)
  lbstresn: 19.0
  lbstnrlo: 8
  lbstnrhi: 20
  visitnum: 1
  visit: SCREENING
  visitdy: 14
  lbnrind: NORMAL
- !ruby/object:SdtmLb
  studyid: ABC1
  usubjid: ABC1-303-02
  lbseq: 85
  lbtestcd: CA
  lbtest: Calcium
  lbstresn: 8.45
  lbstnrlo: 8.5
  lbstnrhi: 10.5
  visitnum: 1
  visit: SCREENING
  visitdy: 14
  lbnrind: LOW
- !ruby/object:SdtmLb
  studyid: ABC1
  usubjid: ABC1-303-02
  lbseq: 85
  lbtestcd: GLUC
  lbtest: Glucose
  lbstresn: 103.8
  lbstnrlo: 60
  lbstnrhi: 115
  visitnum: 1
  visit: SCREENING
  visitdy: 14
  lbnrind: NORMAL
- !ruby/object:SdtmLb
  studyid: ABC1
  usubjid: ABC1-303-02
  lbseq: 86
  lbtestcd: ALB
  lbtest: Albumin
  lbstresn: 3.5
  lbstnrlo: 3.4
  lbstnrhi: 4.7
  visitnum: 2
  visit: BASELINE
  visitdy: 14
  lbnrind: NORMAL
- !ruby/object:SdtmLb
  studyid: ABC1
  usubjid: ABC1-303-02
  lbseq: 86
  lbtestcd: BUN
  lbtest: Blood Urea Nitrogen (BUN)
  lbstresn: 14.3
  lbstnrlo: 8
  lbstnrhi: 20
  visitnum: 2
  visit: BASELINE
  visitdy: 14
  lbnrind: NORMAL
- !ruby/object:SdtmLb
  studyid: ABC1
  usubjid: ABC1-303-02
  lbseq: 86
  lbtestcd: CA
  lbtest: Calcium
  lbstresn: 10.13
  lbstnrlo: 8.5
  lbstnrhi: 10.5
  visitnum: 2
  visit: BASELINE
  visitdy: 14
  lbnrind: NORMAL
- !ruby/object:SdtmLb
  studyid: ABC1
  usubjid: ABC1-303-02
  lbseq: 86
  lbtestcd: GLUC
  lbtest: Glucose
  lbstresn: 112.6
  lbstnrlo: 60
  lbstnrhi: 115
  visitnum: 2
  visit: BASELINE
  visitdy: 14
  lbnrind: NORMAL
- !ruby/object:SdtmLb
  studyid: ABC1
  usubjid: ABC1-303-02
  lbseq: 87
  lbtestcd: ALB
  lbtest: Albumin
  lbstresn: 4.0
  lbstnrlo: 3.4
  lbstnrhi: 4.7
  visitnum: 3
  visit: VISIT 2
  visitdy: 14
  lbnrind: NORMAL
- !ruby/object:SdtmLb
  studyid: ABC1
  usubjid: ABC1-303-02
  lbseq: 87
  lbtestcd: BUN
  lbtest: Blood Urea Nitrogen (BUN)
  lbstresn: 11.0
  lbstnrlo: 8
  lbstnrhi: 20
  visitnum: 3
  visit: VISIT 2
  visitdy: 14
  lbnrind: NORMAL
- !ruby/object:SdtmLb
  studyid: ABC1
  usubjid: ABC1-303-02
  lbseq: 87
  lbtestcd: CA
  lbtest: Calcium
  lbstresn: 9.73
  lbstnrlo: 8.5
  lbstnrhi: 10.5
  visitnum: 3
  visit: VISIT 2
  visitdy: 14
  lbnrind: NORMAL
- !ruby/object:SdtmLb
  studyid: ABC1
  usubjid: ABC1-303-02
  lbseq: 87
  lbtestcd: GLUC
  lbtest: Glucose
  lbstresn: 85.1
  lbstnrlo: 60
  lbstnrhi: 115
  visitnum: 3
  visit: VISIT 2
  visitdy: 14
  lbnrind: NORMAL
- !ruby/object:SdtmLb
  studyid: ABC1
  usubjid: ABC1-303-02
  lbseq: 88
  lbtestcd: ALB
  lbtest: Albumin
  lbstresn: 4.5
  lbstnrlo: 3.4
  lbstnrhi: 4.7
  visitnum: 4
  visit: VISIT 3
  visitdy: 14
  lbnrind: NORMAL
- !ruby/object:SdtmLb
  studyid: ABC1
  usubjid: ABC1-303-02
  lbseq: 88
  lbtestcd: BUN
  lbtest: Blood Urea Nitrogen (BUN)
  lbstresn: 12.6
  lbstnrlo: 8
  lbstnrhi: 20
  visitnum: 4
  visit: VISIT 3
  visitdy: 14
  lbnrind: NORMAL
- !ruby/object:SdtmLb
  studyid: ABC1
  usubjid: ABC1-303-02
  lbseq: 88
  lbtestcd: CA
  lbtest: Calcium
  lbstresn: 9.59
  lbstnrlo: 8.5
  lbstnrhi: 10.5
  visitnum: 4
  visit: VISIT 3
  visitdy: 14
  lbnrind: NORMAL
- !ruby/object:SdtmLb
  studyid: ABC1
  usubjid: ABC1-303-02
  lbseq: 88
  lbtestcd: GLUC
  lbtest: Glucose
  lbstresn: 94.6
  lbstnrlo: 60
  lbstnrhi: 115
  visitnum: 4
  visit: VISIT 3
  visitdy: 14
  lbnrind: NORMAL
- !ruby/object:SdtmLb
  studyid: ABC1
  usubjid: ABC1-303-02
  lbseq: 89
  lbtestcd: ALB
  lbtest: Albumin
  lbstresn: 3.8
  lbstnrlo: 3.4
  lbstnrhi: 4.7
  visitnum: 5
  visit: VISIT 4
  visitdy: 14
  lbnrind: NORMAL
- !ruby/object:SdtmLb
  studyid: ABC1
  usubjid: ABC1-303-02
  lbseq: 89
  lbtestcd: BUN
  lbtest: Blood Urea Nitrogen (BUN)
  lbstresn: 15.7
  lbstnrlo: 8
  lbstnrhi: 20
  visitnum: 5
  visit: VISIT 4
  visitdy: 14
  lbnrind: NORMAL
- !ruby/object:SdtmLb
  studyid: ABC1
  usubjid: ABC1-303-02
  lbseq: 89
  lbtestcd: CA
  lbtest: Calcium
  lbstresn: 9.2
  lbstnrlo: 8.5
  lbstnrhi: 10.5
  visitnum: 5
  visit: VISIT 4
  visitdy: 14
  lbnrind: NORMAL
- !ruby/object:SdtmLb
  studyid: ABC1
  usubjid: ABC1-303-02
  lbseq: 89
  lbtestcd: GLUC
  lbtest: Glucose
  lbstresn: 90.5
  lbstnrlo: 60
  lbstnrhi: 115
  visitnum: 5
  visit: VISIT 4
  visitdy: 14
  lbnrind: NORMAL
- !ruby/object:SdtmLb
  studyid: ABC1
  usubjid: ABC1-303-02
  lbseq: 90
  lbtestcd: ALB
  lbtest: Albumin
  lbstresn: 4.3
  lbstnrlo: 3.4
  lbstnrhi: 4.7
  visitnum: 6
  visit: VISIT 5
  visitdy: 14
  lbnrind: NORMAL
- !ruby/object:SdtmLb
  studyid: ABC1
  usubjid: ABC1-303-02
  lbseq: 90
  lbtestcd: BUN
  lbtest: Blood Urea Nitrogen (BUN)
  lbstresn: 14.4
  lbstnrlo: 8
  lbstnrhi: 20
  visitnum: 6
  visit: VISIT 5
  visitdy: 14
  lbnrind: NORMAL
- !ruby/object:SdtmLb
  studyid: ABC1
  usubjid: ABC1-303-02
  lbseq: 90
  lbtestcd: CA
  lbtest: Calcium
  lbstresn: 9.18
  lbstnrlo: 8.5
  lbstnrhi: 10.5
  visitnum: 6
  visit: VISIT 5
  visitdy: 14
  lbnrind: NORMAL
- !ruby/object:SdtmLb
  studyid: ABC1
  usubjid: ABC1-303-02
  lbseq: 90
  lbtestcd: GLUC
  lbtest: Glucose
  lbstresn: 101.3
  lbstnrlo: 60
  lbstnrhi: 115
  visitnum: 6
  visit: VISIT 5
  visitdy: 14
  lbnrind: NORMAL
- !ruby/object:SdtmLb
  studyid: ABC1
  usubjid: ABC1-202-05
  lbseq: 91
  lbtestcd: ALB
  lbtest: Albumin
  lbstresn: 4.5
  lbstnrlo: 3.4
  lbstnrhi: 4.7
  visitnum: 1
  visit: SCREENING
  visitdy: 14
  lbnrind: NORMAL
- !ruby/object:SdtmLb
  studyid: ABC1
  usubjid: ABC1-202-05
  lbseq: 91
  lbtestcd: BUN
  lbtest: Blood Urea Nitrogen (BUN)
  lbstresn: 14.8
  lbstnrlo: 8
  lbstnrhi: 20
  visitnum: 1
  visit: SCREENING
  visitdy: 14
  lbnrind: NORMAL
- !ruby/object:SdtmLb
  studyid: ABC1
  usubjid: ABC1-202-05
  lbseq: 91
  lbtestcd: CA
  lbtest: Calcium
  lbstresn: 10.45
  lbstnrlo: 8.5
  lbstnrhi: 10.5
  visitnum: 1
  visit: SCREENING
  visitdy: 14
  lbnrind: NORMAL
- !ruby/object:SdtmLb
  studyid: ABC1
  usubjid: ABC1-202-05
  lbseq: 91
  lbtestcd: GLUC
  lbtest: Glucose
  lbstresn: 82.0
  lbstnrlo: 60
  lbstnrhi: 115
  visitnum: 1
  visit: SCREENING
  visitdy: 14
  lbnrind: NORMAL
- !ruby/object:SdtmLb
  studyid: ABC1
  usubjid: ABC1-202-05
  lbseq: 92
  lbtestcd: ALB
  lbtest: Albumin
  lbstresn: 4.4
  lbstnrlo: 3.4
  lbstnrhi: 4.7
  visitnum: 2
  visit: BASELINE
  visitdy: 14
  lbnrind: NORMAL
- !ruby/object:SdtmLb
  studyid: ABC1
  usubjid: ABC1-202-05
  lbseq: 92
  lbtestcd: BUN
  lbtest: Blood Urea Nitrogen (BUN)
  lbstresn: 14.1
  lbstnrlo: 8
  lbstnrhi: 20
  visitnum: 2
  visit: BASELINE
  visitdy: 14
  lbnrind: NORMAL
- !ruby/object:SdtmLb
  studyid: ABC1
  usubjid: ABC1-202-05
  lbseq: 92
  lbtestcd: CA
  lbtest: Calcium
  lbstresn: 9.86
  lbstnrlo: 8.5
  lbstnrhi: 10.5
  visitnum: 2
  visit: BASELINE
  visitdy: 14
  lbnrind: NORMAL
- !ruby/object:SdtmLb
  studyid: ABC1
  usubjid: ABC1-202-05
  lbseq: 92
  lbtestcd: GLUC
  lbtest: Glucose
  lbstresn: 93.4
  lbstnrlo: 60
  lbstnrhi: 115
  visitnum: 2
  visit: BASELINE
  visitdy: 14
  lbnrind: NORMAL
- !ruby/object:SdtmLb
  studyid: ABC1
  usubjid: ABC1-202-05
  lbseq: 93
  lbtestcd: ALB
  lbtest: Albumin
  lbstresn: 3.9
  lbstnrlo: 3.4
  lbstnrhi: 4.7
  visitnum: 3
  visit: VISIT 2
  visitdy: 14
  lbnrind: NORMAL
- !ruby/object:SdtmLb
  studyid: ABC1
  usubjid: ABC1-202-05
  lbseq: 93
  lbtestcd: BUN
  lbtest: Blood Urea Nitrogen (BUN)
  lbstresn: 14.1
  lbstnrlo: 8
  lbstnrhi: 20
  visitnum: 3
  visit: VISIT 2
  visitdy: 14
  lbnrind: NORMAL
- !ruby/object:SdtmLb
  studyid: ABC1
  usubjid: ABC1-202-05
  lbseq: 93
  lbtestcd: CA
  lbtest: Calcium
  lbstresn: 9.16
  lbstnrlo: 8.5
  lbstnrhi: 10.5
  visitnum: 3
  visit: VISIT 2
  visitdy: 14
  lbnrind: NORMAL
- !ruby/object:SdtmLb
  studyid: ABC1
  usubjid: ABC1-202-05
  lbseq: 93
  lbtestcd: GLUC
  lbtest: Glucose
  lbstresn: 84.6
  lbstnrlo: 60
  lbstnrhi: 115
  visitnum: 3
  visit: VISIT 2
  visitdy: 14
  lbnrind: NORMAL
- !ruby/object:SdtmLb
  studyid: ABC1
  usubjid: ABC1-202-05
  lbseq: 94
  lbtestcd: ALB
  lbtest: Albumin
  lbstresn: 4.0
  lbstnrlo: 3.4
  lbstnrhi: 4.7
  visitnum: 4
  visit: VISIT 3
  visitdy: 14
  lbnrind: NORMAL
- !ruby/object:SdtmLb
  studyid: ABC1
  usubjid: ABC1-202-05
  lbseq: 94
  lbtestcd: BUN
  lbtest: Blood Urea Nitrogen (BUN)
  lbstresn: 14.7
  lbstnrlo: 8
  lbstnrhi: 20
  visitnum: 4
  visit: VISIT 3
  visitdy: 14
  lbnrind: NORMAL
- !ruby/object:SdtmLb
  studyid: ABC1
  usubjid: ABC1-202-05
  lbseq: 94
  lbtestcd: CA
  lbtest: Calcium
  lbstresn: 9.34
  lbstnrlo: 8.5
  lbstnrhi: 10.5
  visitnum: 4
  visit: VISIT 3
  visitdy: 14
  lbnrind: NORMAL
- !ruby/object:SdtmLb
  studyid: ABC1
  usubjid: ABC1-202-05
  lbseq: 94
  lbtestcd: GLUC
  lbtest: Glucose
  lbstresn: 77.5
  lbstnrlo: 60
  lbstnrhi: 115
  visitnum: 4
  visit: VISIT 3
  visitdy: 14
  lbnrind: NORMAL
- !ruby/object:SdtmLb
  studyid: ABC1
  usubjid: ABC1-201-04
  lbseq: 95
  lbtestcd: ALB
  lbtest: Albumin
  lbstresn: 3.8
  lbstnrlo: 3.4
  lbstnrhi: 4.7
  visitnum: 1
  visit: SCREENING
  visitdy: 14
  lbnrind: NORMAL
- !ruby/object:SdtmLb
  studyid: ABC1
  usubjid: ABC1-201-04
  lbseq: 95
  lbtestcd: BUN
  lbtest: Blood Urea Nitrogen (BUN)
  lbstresn: 13.9
  lbstnrlo: 8
  lbstnrhi: 20
  visitnum: 1
  visit: SCREENING
  visitdy: 14
  lbnrind: NORMAL
- !ruby/object:SdtmLb
  studyid: ABC1
  usubjid: ABC1-201-04
  lbseq: 95
  lbtestcd: CA
  lbtest: Calcium
  lbstresn: 9.87
  lbstnrlo: 8.5
  lbstnrhi: 10.5
  visitnum: 1
  visit: SCREENING
  visitdy: 14
  lbnrind: NORMAL
- !ruby/object:SdtmLb
  studyid: ABC1
  usubjid: ABC1-201-04
  lbseq: 95
  lbtestcd: GLUC
  lbtest: Glucose
  lbstresn: 108.7
  lbstnrlo: 60
  lbstnrhi: 115
  visitnum: 1
  visit: SCREENING
  visitdy: 14
  lbnrind: NORMAL
- !ruby/object:SdtmLb
  studyid: ABC1
  usubjid: ABC1-201-04
  lbseq: 96
  lbtestcd: ALB
  lbtest: Albumin
  lbstresn: 3.6
  lbstnrlo: 3.4
  lbstnrhi: 4.7
  visitnum: 2
  visit: BASELINE
  visitdy: 14
  lbnrind: NORMAL
- !ruby/object:SdtmLb
  studyid: ABC1
  usubjid: ABC1-201-04
  lbseq: 96
  lbtestcd: BUN
  lbtest: Blood Urea Nitrogen (BUN)
  lbstresn: 12.4
  lbstnrlo: 8
  lbstnrhi: 20
  visitnum: 2
  visit: BASELINE
  visitdy: 14
  lbnrind: NORMAL
- !ruby/object:SdtmLb
  studyid: ABC1
  usubjid: ABC1-201-04
  lbseq: 96
  lbtestcd: CA
  lbtest: Calcium
  lbstresn: 9.73
  lbstnrlo: 8.5
  lbstnrhi: 10.5
  visitnum: 2
  visit: BASELINE
  visitdy: 14
  lbnrind: NORMAL
- !ruby/object:SdtmLb
  studyid: ABC1
  usubjid: ABC1-201-04
  lbseq: 96
  lbtestcd: GLUC
  lbtest: Glucose
  lbstresn: 96.8
  lbstnrlo: 60
  lbstnrhi: 115
  visitnum: 2
  visit: BASELINE
  visitdy: 14
  lbnrind: NORMAL
- !ruby/object:SdtmLb
  studyid: ABC1
  usubjid: ABC1-201-04
  lbseq: 97
  lbtestcd: ALB
  lbtest: Albumin
  lbstresn: 4.0
  lbstnrlo: 3.4
  lbstnrhi: 4.7
  visitnum: 3
  visit: VISIT 2
  visitdy: 14
  lbnrind: NORMAL
- !ruby/object:SdtmLb
  studyid: ABC1
  usubjid: ABC1-201-04
  lbseq: 97
  lbtestcd: BUN
  lbtest: Blood Urea Nitrogen (BUN)
  lbstresn: 11.5
  lbstnrlo: 8
  lbstnrhi: 20
  visitnum: 3
  visit: VISIT 2
  visitdy: 14
  lbnrind: NORMAL
- !ruby/object:SdtmLb
  studyid: ABC1
  usubjid: ABC1-201-04
  lbseq: 97
  lbtestcd: CA
  lbtest: Calcium
  lbstresn: 9.01
  lbstnrlo: 8.5
  lbstnrhi: 10.5
  visitnum: 3
  visit: VISIT 2
  visitdy: 14
  lbnrind: NORMAL
- !ruby/object:SdtmLb
  studyid: ABC1
  usubjid: ABC1-201-04
  lbseq: 97
  lbtestcd: GLUC
  lbtest: Glucose
  lbstresn: 81.5
  lbstnrlo: 60
  lbstnrhi: 115
  visitnum: 3
  visit: VISIT 2
  visitdy: 14
  lbnrind: NORMAL
- !ruby/object:SdtmLb
  studyid: ABC1
  usubjid: ABC1-201-04
  lbseq: 98
  lbtestcd: ALB
  lbtest: Albumin
  lbstresn: 4.3
  lbstnrlo: 3.4
  lbstnrhi: 4.7
  visitnum: 4
  visit: VISIT 3
  visitdy: 14
  lbnrind: NORMAL
- !ruby/object:SdtmLb
  studyid: ABC1
  usubjid: ABC1-201-04
  lbseq: 98
  lbtestcd: BUN
  lbtest: Blood Urea Nitrogen (BUN)
  lbstresn: 9.3
  lbstnrlo: 8
  lbstnrhi: 20
  visitnum: 4
  visit: VISIT 3
  visitdy: 14
  lbnrind: NORMAL
- !ruby/object:SdtmLb
  studyid: ABC1
  usubjid: ABC1-201-04
  lbseq: 98
  lbtestcd: CA
  lbtest: Calcium
  lbstresn: 9.31
  lbstnrlo: 8.5
  lbstnrhi: 10.5
  visitnum: 4
  visit: VISIT 3
  visitdy: 14
  lbnrind: NORMAL
- !ruby/object:SdtmLb
  studyid: ABC1
  usubjid: ABC1-201-04
  lbseq: 98
  lbtestcd: GLUC
  lbtest: Glucose
  lbstresn: 109.8
  lbstnrlo: 60
  lbstnrhi: 115
  visitnum: 4
  visit: VISIT 3
  visitdy: 14
  lbnrind: NORMAL
- !ruby/object:SdtmLb
  studyid: ABC1
  usubjid: ABC1-103-03
  lbseq: 99
  lbtestcd: ALB
  lbtest: Albumin
  lbstresn: 3.9
  lbstnrlo: 3.4
  lbstnrhi: 4.7
  visitnum: 1
  visit: SCREENING
  visitdy: 14
  lbnrind: NORMAL
- !ruby/object:SdtmLb
  studyid: ABC1
  usubjid: ABC1-103-03
  lbseq: 99
  lbtestcd: BUN
  lbtest: Blood Urea Nitrogen (BUN)
  lbstresn: 19.2
  lbstnrlo: 8
  lbstnrhi: 20
  visitnum: 1
  visit: SCREENING
  visitdy: 14
  lbnrind: NORMAL
- !ruby/object:SdtmLb
  studyid: ABC1
  usubjid: ABC1-103-03
  lbseq: 99
  lbtestcd: CA
  lbtest: Calcium
  lbstresn: 8.82
  lbstnrlo: 8.5
  lbstnrhi: 10.5
  visitnum: 1
  visit: SCREENING
  visitdy: 14
  lbnrind: NORMAL
- !ruby/object:SdtmLb
  studyid: ABC1
  usubjid: ABC1-103-03
  lbseq: 99
  lbtestcd: GLUC
  lbtest: Glucose
  lbstresn: 76.7
  lbstnrlo: 60
  lbstnrhi: 115
  visitnum: 1
  visit: SCREENING
  visitdy: 14
  lbnrind: NORMAL
- !ruby/object:SdtmLb
  studyid: ABC1
  usubjid: ABC1-103-03
  lbseq: 100
  lbtestcd: ALB
  lbtest: Albumin
  lbstresn: 4.1
  lbstnrlo: 3.4
  lbstnrhi: 4.7
  visitnum: 2
  visit: BASELINE
  visitdy: 14
  lbnrind: NORMAL
- !ruby/object:SdtmLb
  studyid: ABC1
  usubjid: ABC1-103-03
  lbseq: 100
  lbtestcd: BUN
  lbtest: Blood Urea Nitrogen (BUN)
  lbstresn: 14.7
  lbstnrlo: 8
  lbstnrhi: 20
  visitnum: 2
  visit: BASELINE
  visitdy: 14
  lbnrind: NORMAL
- !ruby/object:SdtmLb
  studyid: ABC1
  usubjid: ABC1-103-03
  lbseq: 100
  lbtestcd: CA
  lbtest: Calcium
  lbstresn: 10.06
  lbstnrlo: 8.5
  lbstnrhi: 10.5
  visitnum: 2
  visit: BASELINE
  visitdy: 14
  lbnrind: NORMAL
- !ruby/object:SdtmLb
  studyid: ABC1
  usubjid: ABC1-103-03
  lbseq: 100
  lbtestcd: GLUC
  lbtest: Glucose
  lbstresn: 101.8
  lbstnrlo: 60
  lbstnrhi: 115
  visitnum: 2
  visit: BASELINE
  visitdy: 14
  lbnrind: NORMAL
- !ruby/object:SdtmLb
  studyid: ABC1
  usubjid: ABC1-103-03
  lbseq: 101
  lbtestcd: ALB
  lbtest: Albumin
  lbstresn: 4.3
  lbstnrlo: 3.4
  lbstnrhi: 4.7
  visitnum: 3
  visit: VISIT 2
  visitdy: 14
  lbnrind: NORMAL
- !ruby/object:SdtmLb
  studyid: ABC1
  usubjid: ABC1-103-03
  lbseq: 101
  lbtestcd: BUN
  lbtest: Blood Urea Nitrogen (BUN)
  lbstresn: 8.3
  lbstnrlo: 8
  lbstnrhi: 20
  visitnum: 3
  visit: VISIT 2
  visitdy: 14
  lbnrind: NORMAL
- !ruby/object:SdtmLb
  studyid: ABC1
  usubjid: ABC1-103-03
  lbseq: 101
  lbtestcd: CA
  lbtest: Calcium
  lbstresn: 9.41
  lbstnrlo: 8.5
  lbstnrhi: 10.5
  visitnum: 3
  visit: VISIT 2
  visitdy: 14
  lbnrind: NORMAL
- !ruby/object:SdtmLb
  studyid: ABC1
  usubjid: ABC1-103-03
  lbseq: 101
  lbtestcd: GLUC
  lbtest: Glucose
  lbstresn: 75.4
  lbstnrlo: 60
  lbstnrhi: 115
  visitnum: 3
  visit: VISIT 2
  visitdy: 14
  lbnrind: NORMAL
- !ruby/object:SdtmLb
  studyid: ABC1
  usubjid: ABC1-103-03
  lbseq: 102
  lbtestcd: ALB
  lbtest: Albumin
  lbstresn: 4.2
  lbstnrlo: 3.4
  lbstnrhi: 4.7
  visitnum: 4
  visit: VISIT 3
  visitdy: 14
  lbnrind: NORMAL
- !ruby/object:SdtmLb
  studyid: ABC1
  usubjid: ABC1-103-03
  lbseq: 102
  lbtestcd: BUN
  lbtest: Blood Urea Nitrogen (BUN)
  lbstresn: 17.8
  lbstnrlo: 8
  lbstnrhi: 20
  visitnum: 4
  visit: VISIT 3
  visitdy: 14
  lbnrind: NORMAL
- !ruby/object:SdtmLb
  studyid: ABC1
  usubjid: ABC1-103-03
  lbseq: 102
  lbtestcd: CA
  lbtest: Calcium
  lbstresn: 9.59
  lbstnrlo: 8.5
  lbstnrhi: 10.5
  visitnum: 4
  visit: VISIT 3
  visitdy: 14
  lbnrind: NORMAL
- !ruby/object:SdtmLb
  studyid: ABC1
  usubjid: ABC1-103-03
  lbseq: 102
  lbtestcd: GLUC
  lbtest: Glucose
  lbstresn: 92.7
  lbstnrlo: 60
  lbstnrhi: 115
  visitnum: 4
  visit: VISIT 3
  visitdy: 14
  lbnrind: NORMAL
- !ruby/object:SdtmLb
  studyid: ABC1
  usubjid: ABC1-103-03
  lbseq: 103
  lbtestcd: ALB
  lbtest: Albumin
  lbstresn: 3.9
  lbstnrlo: 3.4
  lbstnrhi: 4.7
  visitnum: 5
  visit: VISIT 4
  visitdy: 14
  lbnrind: NORMAL
- !ruby/object:SdtmLb
  studyid: ABC1
  usubjid: ABC1-103-03
  lbseq: 103
  lbtestcd: BUN
  lbtest: Blood Urea Nitrogen (BUN)
  lbstresn: 16.4
  lbstnrlo: 8
  lbstnrhi: 20
  visitnum: 5
  visit: VISIT 4
  visitdy: 14
  lbnrind: NORMAL
- !ruby/object:SdtmLb
  studyid: ABC1
  usubjid: ABC1-103-03
  lbseq: 103
  lbtestcd: CA
  lbtest: Calcium
  lbstresn: 9.43
  lbstnrlo: 8.5
  lbstnrhi: 10.5
  visitnum: 5
  visit: VISIT 4
  visitdy: 14
  lbnrind: NORMAL
- !ruby/object:SdtmLb
  studyid: ABC1
  usubjid: ABC1-103-03
  lbseq: 103
  lbtestcd: GLUC
  lbtest: Glucose
  lbstresn: 83.9
  lbstnrlo: 60
  lbstnrhi: 115
  visitnum: 5
  visit: VISIT 4
  visitdy: 14
  lbnrind: NORMAL
- !ruby/object:SdtmLb
  studyid: ABC1
  usubjid: ABC1-103-03
  lbseq: 104
  lbtestcd: ALB
  lbtest: Albumin
  lbstresn: 4.0
  lbstnrlo: 3.4
  lbstnrhi: 4.7
  visitnum: 6
  visit: VISIT 5
  visitdy: 14
  lbnrind: NORMAL
- !ruby/object:SdtmLb
  studyid: ABC1
  usubjid: ABC1-103-03
  lbseq: 104
  lbtestcd: BUN
  lbtest: Blood Urea Nitrogen (BUN)
  lbstresn: 16.4
  lbstnrlo: 8
  lbstnrhi: 20
  visitnum: 6
  visit: VISIT 5
  visitdy: 14
  lbnrind: NORMAL
- !ruby/object:SdtmLb
  studyid: ABC1
  usubjid: ABC1-103-03
  lbseq: 104
  lbtestcd: CA
  lbtest: Calcium
  lbstresn: 9.29
  lbstnrlo: 8.5
  lbstnrhi: 10.5
  visitnum: 6
  visit: VISIT 5
  visitdy: 14
  lbnrind: NORMAL
- !ruby/object:SdtmLb
  studyid: ABC1
  usubjid: ABC1-103-03
  lbseq: 104
  lbtestcd: GLUC
  lbtest: Glucose
  lbstresn: 87.5
  lbstnrlo: 60
  lbstnrhi: 115
  visitnum: 6
  visit: VISIT 5
  visitdy: 14
  lbnrind: NORMAL
- !ruby/object:SdtmLb
  studyid: ABC1
  usubjid: ABC1-103-03
  lbseq: 105
  lbtestcd: ALB
  lbtest: Albumin
  lbstresn: 4.3
  lbstnrlo: 3.4
  lbstnrhi: 4.7
  visitnum: 7
  visit: VISIT 6
  visitdy: 14
  lbnrind: NORMAL
- !ruby/object:SdtmLb
  studyid: ABC1
  usubjid: ABC1-103-03
  lbseq: 105
  lbtestcd: BUN
  lbtest: Blood Urea Nitrogen (BUN)
  lbstresn: 12.6
  lbstnrlo: 8
  lbstnrhi: 20
  visitnum: 7
  visit: VISIT 6
  visitdy: 14
  lbnrind: NORMAL
- !ruby/object:SdtmLb
  studyid: ABC1
  usubjid: ABC1-103-03
  lbseq: 105
  lbtestcd: CA
  lbtest: Calcium
  lbstresn: 10.18
  lbstnrlo: 8.5
  lbstnrhi: 10.5
  visitnum: 7
  visit: VISIT 6
  visitdy: 14
  lbnrind: NORMAL
- !ruby/object:SdtmLb
  studyid: ABC1
  usubjid: ABC1-103-03
  lbseq: 105
  lbtestcd: GLUC
  lbtest: Glucose
  lbstresn: 78.9
  lbstnrlo: 60
  lbstnrhi: 115
  visitnum: 7
  visit: VISIT 6
  visitdy: 14
  lbnrind: NORMAL
- !ruby/object:SdtmLb
  studyid: ABC1
  usubjid: ABC1-301-04
  lbseq: 106
  lbtestcd: ALB
  lbtest: Albumin
  lbstresn: 3.8
  lbstnrlo: 3.4
  lbstnrhi: 4.7
  visitnum: 1
  visit: SCREENING
  visitdy: 14
  lbnrind: NORMAL
- !ruby/object:SdtmLb
  studyid: ABC1
  usubjid: ABC1-301-04
  lbseq: 106
  lbtestcd: BUN
  lbtest: Blood Urea Nitrogen (BUN)
  lbstresn: 13.7
  lbstnrlo: 8
  lbstnrhi: 20
  visitnum: 1
  visit: SCREENING
  visitdy: 14
  lbnrind: NORMAL
- !ruby/object:SdtmLb
  studyid: ABC1
  usubjid: ABC1-301-04
  lbseq: 106
  lbtestcd: CA
  lbtest: Calcium
  lbstresn: 9.9
  lbstnrlo: 8.5
  lbstnrhi: 10.5
  visitnum: 1
  visit: SCREENING
  visitdy: 14
  lbnrind: NORMAL
- !ruby/object:SdtmLb
  studyid: ABC1
  usubjid: ABC1-301-04
  lbseq: 106
  lbtestcd: GLUC
  lbtest: Glucose
  lbstresn: 85.6
  lbstnrlo: 60
  lbstnrhi: 115
  visitnum: 1
  visit: SCREENING
  visitdy: 14
  lbnrind: NORMAL
- !ruby/object:SdtmLb
  studyid: ABC1
  usubjid: ABC1-301-04
  lbseq: 107
  lbtestcd: ALB
  lbtest: Albumin
  lbstresn: 3.6
  lbstnrlo: 3.4
  lbstnrhi: 4.7
  visitnum: 2
  visit: BASELINE
  visitdy: 14
  lbnrind: NORMAL
- !ruby/object:SdtmLb
  studyid: ABC1
  usubjid: ABC1-301-04
  lbseq: 107
  lbtestcd: BUN
  lbtest: Blood Urea Nitrogen (BUN)
  lbstresn: 13.9
  lbstnrlo: 8
  lbstnrhi: 20
  visitnum: 2
  visit: BASELINE
  visitdy: 14
  lbnrind: NORMAL
- !ruby/object:SdtmLb
  studyid: ABC1
  usubjid: ABC1-301-04
  lbseq: 107
  lbtestcd: CA
  lbtest: Calcium
  lbstresn: 9.37
  lbstnrlo: 8.5
  lbstnrhi: 10.5
  visitnum: 2
  visit: BASELINE
  visitdy: 14
  lbnrind: NORMAL
- !ruby/object:SdtmLb
  studyid: ABC1
  usubjid: ABC1-301-04
  lbseq: 107
  lbtestcd: GLUC
  lbtest: Glucose
  lbstresn: 60.7
  lbstnrlo: 60
  lbstnrhi: 115
  visitnum: 2
  visit: BASELINE
  visitdy: 14
  lbnrind: NORMAL
- !ruby/object:SdtmLb
  studyid: ABC1
  usubjid: ABC1-301-04
  lbseq: 108
  lbtestcd: ALB
  lbtest: Albumin
  lbstresn: 3.8
  lbstnrlo: 3.4
  lbstnrhi: 4.7
  visitnum: 3
  visit: VISIT 2
  visitdy: 14
  lbnrind: NORMAL
- !ruby/object:SdtmLb
  studyid: ABC1
  usubjid: ABC1-301-04
  lbseq: 108
  lbtestcd: BUN
  lbtest: Blood Urea Nitrogen (BUN)
  lbstresn: 5.4
  lbstnrlo: 8
  lbstnrhi: 20
  visitnum: 3
  visit: VISIT 2
  visitdy: 14
  lbnrind: LOW
- !ruby/object:SdtmLb
  studyid: ABC1
  usubjid: ABC1-301-04
  lbseq: 108
  lbtestcd: CA
  lbtest: Calcium
  lbstresn: 9.12
  lbstnrlo: 8.5
  lbstnrhi: 10.5
  visitnum: 3
  visit: VISIT 2
  visitdy: 14
  lbnrind: NORMAL
- !ruby/object:SdtmLb
  studyid: ABC1
  usubjid: ABC1-301-04
  lbseq: 108
  lbtestcd: GLUC
  lbtest: Glucose
  lbstresn: 97.5
  lbstnrlo: 60
  lbstnrhi: 115
  visitnum: 3
  visit: VISIT 2
  visitdy: 14
  lbnrind: NORMAL
- !ruby/object:SdtmLb
  studyid: ABC1
  usubjid: ABC1-303-03
  lbseq: 109
  lbtestcd: ALB
  lbtest: Albumin
  lbstresn: 3.8
  lbstnrlo: 3.4
  lbstnrhi: 4.7
  visitnum: 1
  visit: SCREENING
  visitdy: 14
  lbnrind: NORMAL
- !ruby/object:SdtmLb
  studyid: ABC1
  usubjid: ABC1-303-03
  lbseq: 109
  lbtestcd: BUN
  lbtest: Blood Urea Nitrogen (BUN)
  lbstresn: 14.8
  lbstnrlo: 8
  lbstnrhi: 20
  visitnum: 1
  visit: SCREENING
  visitdy: 14
  lbnrind: NORMAL
- !ruby/object:SdtmLb
  studyid: ABC1
  usubjid: ABC1-303-03
  lbseq: 109
  lbtestcd: CA
  lbtest: Calcium
  lbstresn: 9.36
  lbstnrlo: 8.5
  lbstnrhi: 10.5
  visitnum: 1
  visit: SCREENING
  visitdy: 14
  lbnrind: NORMAL
- !ruby/object:SdtmLb
  studyid: ABC1
  usubjid: ABC1-303-03
  lbseq: 109
  lbtestcd: GLUC
  lbtest: Glucose
  lbstresn: 82.1
  lbstnrlo: 60
  lbstnrhi: 115
  visitnum: 1
  visit: SCREENING
  visitdy: 14
  lbnrind: NORMAL
- !ruby/object:SdtmLb
  studyid: ABC1
  usubjid: ABC1-303-03
  lbseq: 110
  lbtestcd: ALB
  lbtest: Albumin
  lbstresn: 4.2
  lbstnrlo: 3.4
  lbstnrhi: 4.7
  visitnum: 2
  visit: BASELINE
  visitdy: 14
  lbnrind: NORMAL
- !ruby/object:SdtmLb
  studyid: ABC1
  usubjid: ABC1-303-03
  lbseq: 110
  lbtestcd: BUN
  lbtest: Blood Urea Nitrogen (BUN)
  lbstresn: 8.5
  lbstnrlo: 8
  lbstnrhi: 20
  visitnum: 2
  visit: BASELINE
  visitdy: 14
  lbnrind: NORMAL
- !ruby/object:SdtmLb
  studyid: ABC1
  usubjid: ABC1-303-03
  lbseq: 110
  lbtestcd: CA
  lbtest: Calcium
  lbstresn: 8.53
  lbstnrlo: 8.5
  lbstnrhi: 10.5
  visitnum: 2
  visit: BASELINE
  visitdy: 14
  lbnrind: NORMAL
- !ruby/object:SdtmLb
  studyid: ABC1
  usubjid: ABC1-303-03
  lbseq: 110
  lbtestcd: GLUC
  lbtest: Glucose
  lbstresn: 102.8
  lbstnrlo: 60
  lbstnrhi: 115
  visitnum: 2
  visit: BASELINE
  visitdy: 14
  lbnrind: NORMAL
- !ruby/object:SdtmLb
  studyid: ABC1
  usubjid: ABC1-303-03
  lbseq: 111
  lbtestcd: ALB
  lbtest: Albumin
  lbstresn: 4.0
  lbstnrlo: 3.4
  lbstnrhi: 4.7
  visitnum: 3
  visit: VISIT 2
  visitdy: 14
  lbnrind: NORMAL
- !ruby/object:SdtmLb
  studyid: ABC1
  usubjid: ABC1-303-03
  lbseq: 111
  lbtestcd: BUN
  lbtest: Blood Urea Nitrogen (BUN)
  lbstresn: 20.3
  lbstnrlo: 8
  lbstnrhi: 20
  visitnum: 3
  visit: VISIT 2
  visitdy: 14
  lbnrind: HIGH
- !ruby/object:SdtmLb
  studyid: ABC1
  usubjid: ABC1-303-03
  lbseq: 111
  lbtestcd: CA
  lbtest: Calcium
  lbstresn: 9.1
  lbstnrlo: 8.5
  lbstnrhi: 10.5
  visitnum: 3
  visit: VISIT 2
  visitdy: 14
  lbnrind: NORMAL
- !ruby/object:SdtmLb
  studyid: ABC1
  usubjid: ABC1-303-03
  lbseq: 111
  lbtestcd: GLUC
  lbtest: Glucose
  lbstresn: 81.7
  lbstnrlo: 60
  lbstnrhi: 115
  visitnum: 3
  visit: VISIT 2
  visitdy: 14
  lbnrind: NORMAL
- !ruby/object:SdtmLb
  studyid: ABC1
  usubjid: ABC1-303-03
  lbseq: 112
  lbtestcd: ALB
  lbtest: Albumin
  lbstresn: 4.1
  lbstnrlo: 3.4
  lbstnrhi: 4.7
  visitnum: 4
  visit: VISIT 3
  visitdy: 14
  lbnrind: NORMAL
- !ruby/object:SdtmLb
  studyid: ABC1
  usubjid: ABC1-303-03
  lbseq: 112
  lbtestcd: BUN
  lbtest: Blood Urea Nitrogen (BUN)
  lbstresn: 12.0
  lbstnrlo: 8
  lbstnrhi: 20
  visitnum: 4
  visit: VISIT 3
  visitdy: 14
  lbnrind: NORMAL
- !ruby/object:SdtmLb
  studyid: ABC1
  usubjid: ABC1-303-03
  lbseq: 112
  lbtestcd: CA
  lbtest: Calcium
  lbstresn: 9.71
  lbstnrlo: 8.5
  lbstnrhi: 10.5
  visitnum: 4
  visit: VISIT 3
  visitdy: 14
  lbnrind: NORMAL
- !ruby/object:SdtmLb
  studyid: ABC1
  usubjid: ABC1-303-03
  lbseq: 112
  lbtestcd: GLUC
  lbtest: Glucose
  lbstresn: 77.3
  lbstnrlo: 60
  lbstnrhi: 115
  visitnum: 4
  visit: VISIT 3
  visitdy: 14
  lbnrind: NORMAL
- !ruby/object:SdtmLb
  studyid: ABC1
  usubjid: ABC1-303-03
  lbseq: 113
  lbtestcd: ALB
  lbtest: Albumin
  lbstresn: 3.8
  lbstnrlo: 3.4
  lbstnrhi: 4.7
  visitnum: 5
  visit: VISIT 4
  visitdy: 14
  lbnrind: NORMAL
- !ruby/object:SdtmLb
  studyid: ABC1
  usubjid: ABC1-303-03
  lbseq: 113
  lbtestcd: BUN
  lbtest: Blood Urea Nitrogen (BUN)
  lbstresn: 15.1
  lbstnrlo: 8
  lbstnrhi: 20
  visitnum: 5
  visit: VISIT 4
  visitdy: 14
  lbnrind: NORMAL
- !ruby/object:SdtmLb
  studyid: ABC1
  usubjid: ABC1-303-03
  lbseq: 113
  lbtestcd: CA
  lbtest: Calcium
  lbstresn: 9.04
  lbstnrlo: 8.5
  lbstnrhi: 10.5
  visitnum: 5
  visit: VISIT 4
  visitdy: 14
  lbnrind: NORMAL
- !ruby/object:SdtmLb
  studyid: ABC1
  usubjid: ABC1-303-03
  lbseq: 113
  lbtestcd: GLUC
  lbtest: Glucose
  lbstresn: 97.4
  lbstnrlo: 60
  lbstnrhi: 115
  visitnum: 5
  visit: VISIT 4
  visitdy: 14
  lbnrind: NORMAL
- !ruby/object:SdtmLb
  studyid: ABC1
  usubjid: ABC1-303-03
  lbseq: 114
  lbtestcd: ALB
  lbtest: Albumin
  lbstresn: 4.0
  lbstnrlo: 3.4
  lbstnrhi: 4.7
  visitnum: 6
  visit: VISIT 5
  visitdy: 14
  lbnrind: NORMAL
- !ruby/object:SdtmLb
  studyid: ABC1
  usubjid: ABC1-303-03
  lbseq: 114
  lbtestcd: BUN
  lbtest: Blood Urea Nitrogen (BUN)
  lbstresn: 14.5
  lbstnrlo: 8
  lbstnrhi: 20
  visitnum: 6
  visit: VISIT 5
  visitdy: 14
  lbnrind: NORMAL
- !ruby/object:SdtmLb
  studyid: ABC1
  usubjid: ABC1-303-03
  lbseq: 114
  lbtestcd: CA
  lbtest: Calcium
  lbstresn: 10.08
  lbstnrlo: 8.5
  lbstnrhi: 10.5
  visitnum: 6
  visit: VISIT 5
  visitdy: 14
  lbnrind: NORMAL
- !ruby/object:SdtmLb
  studyid: ABC1
  usubjid: ABC1-303-03
  lbseq: 114
  lbtestcd: GLUC
  lbtest: Glucose
  lbstresn: 111.0
  lbstnrlo: 60
  lbstnrhi: 115
  visitnum: 6
  visit: VISIT 5
  visitdy: 14
  lbnrind: NORMAL
- !ruby/object:SdtmLb
  studyid: ABC1
  usubjid: ABC1-201-05
  lbseq: 115
  lbtestcd: ALB
  lbtest: Albumin
  lbstresn: 4.1
  lbstnrlo: 3.4
  lbstnrhi: 4.7
  visitnum: 1
  visit: SCREENING
  visitdy: 14
  lbnrind: NORMAL
- !ruby/object:SdtmLb
  studyid: ABC1
  usubjid: ABC1-201-05
  lbseq: 115
  lbtestcd: BUN
  lbtest: Blood Urea Nitrogen (BUN)
  lbstresn: 12.7
  lbstnrlo: 8
  lbstnrhi: 20
  visitnum: 1
  visit: SCREENING
  visitdy: 14
  lbnrind: NORMAL
- !ruby/object:SdtmLb
  studyid: ABC1
  usubjid: ABC1-201-05
  lbseq: 115
  lbtestcd: CA
  lbtest: Calcium
  lbstresn: 9.22
  lbstnrlo: 8.5
  lbstnrhi: 10.5
  visitnum: 1
  visit: SCREENING
  visitdy: 14
  lbnrind: NORMAL
- !ruby/object:SdtmLb
  studyid: ABC1
  usubjid: ABC1-201-05
  lbseq: 115
  lbtestcd: GLUC
  lbtest: Glucose
  lbstresn: 109.2
  lbstnrlo: 60
  lbstnrhi: 115
  visitnum: 1
  visit: SCREENING
  visitdy: 14
  lbnrind: NORMAL
- !ruby/object:SdtmLb
  studyid: ABC1
  usubjid: ABC1-201-05
  lbseq: 116
  lbtestcd: ALB
  lbtest: Albumin
  lbstresn: 3.9
  lbstnrlo: 3.4
  lbstnrhi: 4.7
  visitnum: 2
  visit: BASELINE
  visitdy: 14
  lbnrind: NORMAL
- !ruby/object:SdtmLb
  studyid: ABC1
  usubjid: ABC1-201-05
  lbseq: 116
  lbtestcd: BUN
  lbtest: Blood Urea Nitrogen (BUN)
  lbstresn: 14.6
  lbstnrlo: 8
  lbstnrhi: 20
  visitnum: 2
  visit: BASELINE
  visitdy: 14
  lbnrind: NORMAL
- !ruby/object:SdtmLb
  studyid: ABC1
  usubjid: ABC1-201-05
  lbseq: 116
  lbtestcd: CA
  lbtest: Calcium
  lbstresn: 9.44
  lbstnrlo: 8.5
  lbstnrhi: 10.5
  visitnum: 2
  visit: BASELINE
  visitdy: 14
  lbnrind: NORMAL
- !ruby/object:SdtmLb
  studyid: ABC1
  usubjid: ABC1-201-05
  lbseq: 116
  lbtestcd: GLUC
  lbtest: Glucose
  lbstresn: 95.1
  lbstnrlo: 60
  lbstnrhi: 115
  visitnum: 2
  visit: BASELINE
  visitdy: 14
  lbnrind: NORMAL
- !ruby/object:SdtmLb
  studyid: ABC1
  usubjid: ABC1-201-05
  lbseq: 117
  lbtestcd: ALB
  lbtest: Albumin
  lbstresn: 4.3
  lbstnrlo: 3.4
  lbstnrhi: 4.7
  visitnum: 3
  visit: VISIT 2
  visitdy: 14
  lbnrind: NORMAL
- !ruby/object:SdtmLb
  studyid: ABC1
  usubjid: ABC1-201-05
  lbseq: 117
  lbtestcd: BUN
  lbtest: Blood Urea Nitrogen (BUN)
  lbstresn: 13.6
  lbstnrlo: 8
  lbstnrhi: 20
  visitnum: 3
  visit: VISIT 2
  visitdy: 14
  lbnrind: NORMAL
- !ruby/object:SdtmLb
  studyid: ABC1
  usubjid: ABC1-201-05
  lbseq: 117
  lbtestcd: CA
  lbtest: Calcium
  lbstresn: 9.64
  lbstnrlo: 8.5
  lbstnrhi: 10.5
  visitnum: 3
  visit: VISIT 2
  visitdy: 14
  lbnrind: NORMAL
- !ruby/object:SdtmLb
  studyid: ABC1
  usubjid: ABC1-201-05
  lbseq: 117
  lbtestcd: GLUC
  lbtest: Glucose
  lbstresn: 85.4
  lbstnrlo: 60
  lbstnrhi: 115
  visitnum: 3
  visit: VISIT 2
  visitdy: 14
  lbnrind: NORMAL
- !ruby/object:SdtmLb
  studyid: ABC1
  usubjid: ABC1-201-05
  lbseq: 118
  lbtestcd: ALB
  lbtest: Albumin
  lbstresn: 4.4
  lbstnrlo: 3.4
  lbstnrhi: 4.7
  visitnum: 4
  visit: VISIT 3
  visitdy: 14
  lbnrind: NORMAL
- !ruby/object:SdtmLb
  studyid: ABC1
  usubjid: ABC1-201-05
  lbseq: 118
  lbtestcd: BUN
  lbtest: Blood Urea Nitrogen (BUN)
  lbstresn: 16.1
  lbstnrlo: 8
  lbstnrhi: 20
  visitnum: 4
  visit: VISIT 3
  visitdy: 14
  lbnrind: NORMAL
- !ruby/object:SdtmLb
  studyid: ABC1
  usubjid: ABC1-201-05
  lbseq: 118
  lbtestcd: CA
  lbtest: Calcium
  lbstresn: 9.0
  lbstnrlo: 8.5
  lbstnrhi: 10.5
  visitnum: 4
  visit: VISIT 3
  visitdy: 14
  lbnrind: NORMAL
- !ruby/object:SdtmLb
  studyid: ABC1
  usubjid: ABC1-201-05
  lbseq: 118
  lbtestcd: GLUC
  lbtest: Glucose
  lbstresn: 62.1
  lbstnrlo: 60
  lbstnrhi: 115
  visitnum: 4
  visit: VISIT 3
  visitdy: 14
  lbnrind: NORMAL
- !ruby/object:SdtmLb
  studyid: ABC1
  usubjid: ABC1-201-05
  lbseq: 119
  lbtestcd: ALB
  lbtest: Albumin
  lbstresn: 4.2
  lbstnrlo: 3.4
  lbstnrhi: 4.7
  visitnum: 5
  visit: VISIT 4
  visitdy: 14
  lbnrind: NORMAL
- !ruby/object:SdtmLb
  studyid: ABC1
  usubjid: ABC1-201-05
  lbseq: 119
  lbtestcd: BUN
  lbtest: Blood Urea Nitrogen (BUN)
  lbstresn: 13.2
  lbstnrlo: 8
  lbstnrhi: 20
  visitnum: 5
  visit: VISIT 4
  visitdy: 14
  lbnrind: NORMAL
- !ruby/object:SdtmLb
  studyid: ABC1
  usubjid: ABC1-201-05
  lbseq: 119
  lbtestcd: CA
  lbtest: Calcium
  lbstresn: 9.51
  lbstnrlo: 8.5
  lbstnrhi: 10.5
  visitnum: 5
  visit: VISIT 4
  visitdy: 14
  lbnrind: NORMAL
- !ruby/object:SdtmLb
  studyid: ABC1
  usubjid: ABC1-201-05
  lbseq: 119
  lbtestcd: GLUC
  lbtest: Glucose
  lbstresn: 88.8
  lbstnrlo: 60
  lbstnrhi: 115
  visitnum: 5
  visit: VISIT 4
  visitdy: 14
  lbnrind: NORMAL
- !ruby/object:SdtmLb
  studyid: ABC1
  usubjid: ABC1-201-05
  lbseq: 120
  lbtestcd: ALB
  lbtest: Albumin
  lbstresn: 4.1
  lbstnrlo: 3.4
  lbstnrhi: 4.7
  visitnum: 6
  visit: VISIT 5
  visitdy: 14
  lbnrind: NORMAL
- !ruby/object:SdtmLb
  studyid: ABC1
  usubjid: ABC1-201-05
  lbseq: 120
  lbtestcd: BUN
  lbtest: Blood Urea Nitrogen (BUN)
  lbstresn: 11.3
  lbstnrlo: 8
  lbstnrhi: 20
  visitnum: 6
  visit: VISIT 5
  visitdy: 14
  lbnrind: NORMAL
- !ruby/object:SdtmLb
  studyid: ABC1
  usubjid: ABC1-201-05
  lbseq: 120
  lbtestcd: CA
  lbtest: Calcium
  lbstresn: 9.18
  lbstnrlo: 8.5
  lbstnrhi: 10.5
  visitnum: 6
  visit: VISIT 5
  visitdy: 14
  lbnrind: NORMAL
- !ruby/object:SdtmLb
  studyid: ABC1
  usubjid: ABC1-201-05
  lbseq: 120
  lbtestcd: GLUC
  lbtest: Glucose
  lbstresn: 67.8
  lbstnrlo: 60
  lbstnrhi: 115
  visitnum: 6
  visit: VISIT 5
  visitdy: 14
  lbnrind: NORMAL
- !ruby/object:SdtmLb
  studyid: ABC1
  usubjid: ABC1-201-05
  lbseq: 121
  lbtestcd: ALB
  lbtest: Albumin
  lbstresn: 4.1
  lbstnrlo: 3.4
  lbstnrhi: 4.7
  visitnum: 7
  visit: VISIT 6
  visitdy: 14
  lbnrind: NORMAL
- !ruby/object:SdtmLb
  studyid: ABC1
  usubjid: ABC1-201-05
  lbseq: 121
  lbtestcd: BUN
  lbtest: Blood Urea Nitrogen (BUN)
  lbstresn: 19.0
  lbstnrlo: 8
  lbstnrhi: 20
  visitnum: 7
  visit: VISIT 6
  visitdy: 14
  lbnrind: NORMAL
- !ruby/object:SdtmLb
  studyid: ABC1
  usubjid: ABC1-201-05
  lbseq: 121
  lbtestcd: CA
  lbtest: Calcium
  lbstresn: 9.47
  lbstnrlo: 8.5
  lbstnrhi: 10.5
  visitnum: 7
  visit: VISIT 6
  visitdy: 14
  lbnrind: NORMAL
- !ruby/object:SdtmLb
  studyid: ABC1
  usubjid: ABC1-201-05
  lbseq: 121
  lbtestcd: GLUC
  lbtest: Glucose
  lbstresn: 101.3
  lbstnrlo: 60
  lbstnrhi: 115
  visitnum: 7
  visit: VISIT 6
  visitdy: 14
  lbnrind: NORMAL
- !ruby/object:SdtmLb
  studyid: ABC1
  usubjid: ABC1-101-03
  lbseq: 122
  lbtestcd: ALB
  lbtest: Albumin
  lbstresn: 4.3
  lbstnrlo: 3.4
  lbstnrhi: 4.7
  visitnum: 1
  visit: SCREENING
  visitdy: 14
  lbnrind: NORMAL
- !ruby/object:SdtmLb
  studyid: ABC1
  usubjid: ABC1-101-03
  lbseq: 122
  lbtestcd: BUN
  lbtest: Blood Urea Nitrogen (BUN)
  lbstresn: 13.3
  lbstnrlo: 8
  lbstnrhi: 20
  visitnum: 1
  visit: SCREENING
  visitdy: 14
  lbnrind: NORMAL
- !ruby/object:SdtmLb
  studyid: ABC1
  usubjid: ABC1-101-03
  lbseq: 122
  lbtestcd: CA
  lbtest: Calcium
  lbstresn: 9.11
  lbstnrlo: 8.5
  lbstnrhi: 10.5
  visitnum: 1
  visit: SCREENING
  visitdy: 14
  lbnrind: NORMAL
- !ruby/object:SdtmLb
  studyid: ABC1
  usubjid: ABC1-101-03
  lbseq: 122
  lbtestcd: GLUC
  lbtest: Glucose
  lbstresn: 71.7
  lbstnrlo: 60
  lbstnrhi: 115
  visitnum: 1
  visit: SCREENING
  visitdy: 14
  lbnrind: NORMAL
- !ruby/object:SdtmLb
  studyid: ABC1
  usubjid: ABC1-101-03
  lbseq: 123
  lbtestcd: ALB
  lbtest: Albumin
  lbstresn: 4.3
  lbstnrlo: 3.4
  lbstnrhi: 4.7
  visitnum: 2
  visit: BASELINE
  visitdy: 14
  lbnrind: NORMAL
- !ruby/object:SdtmLb
  studyid: ABC1
  usubjid: ABC1-101-03
  lbseq: 123
  lbtestcd: BUN
  lbtest: Blood Urea Nitrogen (BUN)
  lbstresn: 19.8
  lbstnrlo: 8
  lbstnrhi: 20
  visitnum: 2
  visit: BASELINE
  visitdy: 14
  lbnrind: NORMAL
- !ruby/object:SdtmLb
  studyid: ABC1
  usubjid: ABC1-101-03
  lbseq: 123
  lbtestcd: CA
  lbtest: Calcium
  lbstresn: 9.35
  lbstnrlo: 8.5
  lbstnrhi: 10.5
  visitnum: 2
  visit: BASELINE
  visitdy: 14
  lbnrind: NORMAL
- !ruby/object:SdtmLb
  studyid: ABC1
  usubjid: ABC1-101-03
  lbseq: 123
  lbtestcd: GLUC
  lbtest: Glucose
  lbstresn: 73.1
  lbstnrlo: 60
  lbstnrhi: 115
  visitnum: 2
  visit: BASELINE
  visitdy: 14
  lbnrind: NORMAL
- !ruby/object:SdtmLb
  studyid: ABC1
  usubjid: ABC1-101-03
  lbseq: 124
  lbtestcd: ALB
  lbtest: Albumin
  lbstresn: 4.2
  lbstnrlo: 3.4
  lbstnrhi: 4.7
  visitnum: 3
  visit: VISIT 2
  visitdy: 14
  lbnrind: NORMAL
- !ruby/object:SdtmLb
  studyid: ABC1
  usubjid: ABC1-101-03
  lbseq: 124
  lbtestcd: BUN
  lbtest: Blood Urea Nitrogen (BUN)
  lbstresn: 11.4
  lbstnrlo: 8
  lbstnrhi: 20
  visitnum: 3
  visit: VISIT 2
  visitdy: 14
  lbnrind: NORMAL
- !ruby/object:SdtmLb
  studyid: ABC1
  usubjid: ABC1-101-03
  lbseq: 124
  lbtestcd: CA
  lbtest: Calcium
  lbstresn: 10.71
  lbstnrlo: 8.5
  lbstnrhi: 10.5
  visitnum: 3
  visit: VISIT 2
  visitdy: 14
  lbnrind: HIGH
- !ruby/object:SdtmLb
  studyid: ABC1
  usubjid: ABC1-101-03
  lbseq: 124
  lbtestcd: GLUC
  lbtest: Glucose
  lbstresn: 89.3
  lbstnrlo: 60
  lbstnrhi: 115
  visitnum: 3
  visit: VISIT 2
  visitdy: 14
  lbnrind: NORMAL
- !ruby/object:SdtmLb
  studyid: ABC1
  usubjid: ABC1-101-03
  lbseq: 125
  lbtestcd: ALB
  lbtest: Albumin
  lbstresn: 4.3
  lbstnrlo: 3.4
  lbstnrhi: 4.7
  visitnum: 4
  visit: VISIT 3
  visitdy: 14
  lbnrind: NORMAL
- !ruby/object:SdtmLb
  studyid: ABC1
  usubjid: ABC1-101-03
  lbseq: 125
  lbtestcd: BUN
  lbtest: Blood Urea Nitrogen (BUN)
  lbstresn: 15.2
  lbstnrlo: 8
  lbstnrhi: 20
  visitnum: 4
  visit: VISIT 3
  visitdy: 14
  lbnrind: NORMAL
- !ruby/object:SdtmLb
  studyid: ABC1
  usubjid: ABC1-101-03
  lbseq: 125
  lbtestcd: CA
  lbtest: Calcium
  lbstresn: 9.99
  lbstnrlo: 8.5
  lbstnrhi: 10.5
  visitnum: 4
  visit: VISIT 3
  visitdy: 14
  lbnrind: NORMAL
- !ruby/object:SdtmLb
  studyid: ABC1
  usubjid: ABC1-101-03
  lbseq: 125
  lbtestcd: GLUC
  lbtest: Glucose
  lbstresn: 91.4
  lbstnrlo: 60
  lbstnrhi: 115
  visitnum: 4
  visit: VISIT 3
  visitdy: 14
  lbnrind: NORMAL
- !ruby/object:SdtmLb
  studyid: ABC1
  usubjid: ABC1-101-03
  lbseq: 126
  lbtestcd: ALB
  lbtest: Albumin
  lbstresn: 4.2
  lbstnrlo: 3.4
  lbstnrhi: 4.7
  visitnum: 5
  visit: VISIT 4
  visitdy: 14
  lbnrind: NORMAL
- !ruby/object:SdtmLb
  studyid: ABC1
  usubjid: ABC1-101-03
  lbseq: 126
  lbtestcd: BUN
  lbtest: Blood Urea Nitrogen (BUN)
  lbstresn: 11.3
  lbstnrlo: 8
  lbstnrhi: 20
  visitnum: 5
  visit: VISIT 4
  visitdy: 14
  lbnrind: NORMAL
- !ruby/object:SdtmLb
  studyid: ABC1
  usubjid: ABC1-101-03
  lbseq: 126
  lbtestcd: CA
  lbtest: Calcium
  lbstresn: 9.28
  lbstnrlo: 8.5
  lbstnrhi: 10.5
  visitnum: 5
  visit: VISIT 4
  visitdy: 14
  lbnrind: NORMAL
- !ruby/object:SdtmLb
  studyid: ABC1
  usubjid: ABC1-101-03
  lbseq: 126
  lbtestcd: GLUC
  lbtest: Glucose
  lbstresn: 73.8
  lbstnrlo: 60
  lbstnrhi: 115
  visitnum: 5
  visit: VISIT 4
  visitdy: 14
  lbnrind: NORMAL
- !ruby/object:SdtmLb
  studyid: ABC1
  usubjid: ABC1-101-03
  lbseq: 127
  lbtestcd: ALB
  lbtest: Albumin
  lbstresn: 4.0
  lbstnrlo: 3.4
  lbstnrhi: 4.7
  visitnum: 6
  visit: VISIT 5
  visitdy: 14
  lbnrind: NORMAL
- !ruby/object:SdtmLb
  studyid: ABC1
  usubjid: ABC1-101-03
  lbseq: 127
  lbtestcd: BUN
  lbtest: Blood Urea Nitrogen (BUN)
  lbstresn: 18.1
  lbstnrlo: 8
  lbstnrhi: 20
  visitnum: 6
  visit: VISIT 5
  visitdy: 14
  lbnrind: NORMAL
- !ruby/object:SdtmLb
  studyid: ABC1
  usubjid: ABC1-101-03
  lbseq: 127
  lbtestcd: CA
  lbtest: Calcium
  lbstresn: 10.2
  lbstnrlo: 8.5
  lbstnrhi: 10.5
  visitnum: 6
  visit: VISIT 5
  visitdy: 14
  lbnrind: NORMAL
- !ruby/object:SdtmLb
  studyid: ABC1
  usubjid: ABC1-101-03
  lbseq: 127
  lbtestcd: GLUC
  lbtest: Glucose
  lbstresn: 90.9
  lbstnrlo: 60
  lbstnrhi: 115
  visitnum: 6
  visit: VISIT 5
  visitdy: 14
  lbnrind: NORMAL
- !ruby/object:SdtmLb
  studyid: ABC1
  usubjid: ABC1-202-06
  lbseq: 128
  lbtestcd: ALB
  lbtest: Albumin
  lbstresn: 3.8
  lbstnrlo: 3.4
  lbstnrhi: 4.7
  visitnum: 1
  visit: SCREENING
  visitdy: 14
  lbnrind: NORMAL
- !ruby/object:SdtmLb
  studyid: ABC1
  usubjid: ABC1-202-06
  lbseq: 128
  lbtestcd: BUN
  lbtest: Blood Urea Nitrogen (BUN)
  lbstresn: 10.2
  lbstnrlo: 8
  lbstnrhi: 20
  visitnum: 1
  visit: SCREENING
  visitdy: 14
  lbnrind: NORMAL
- !ruby/object:SdtmLb
  studyid: ABC1
  usubjid: ABC1-202-06
  lbseq: 128
  lbtestcd: CA
  lbtest: Calcium
  lbstresn: 9.24
  lbstnrlo: 8.5
  lbstnrhi: 10.5
  visitnum: 1
  visit: SCREENING
  visitdy: 14
  lbnrind: NORMAL
- !ruby/object:SdtmLb
  studyid: ABC1
  usubjid: ABC1-202-06
  lbseq: 128
  lbtestcd: GLUC
  lbtest: Glucose
  lbstresn: 89.7
  lbstnrlo: 60
  lbstnrhi: 115
  visitnum: 1
  visit: SCREENING
  visitdy: 14
  lbnrind: NORMAL
- !ruby/object:SdtmLb
  studyid: ABC1
  usubjid: ABC1-202-06
  lbseq: 129
  lbtestcd: ALB
  lbtest: Albumin
  lbstresn: 4.5
  lbstnrlo: 3.4
  lbstnrhi: 4.7
  visitnum: 2
  visit: BASELINE
  visitdy: 14
  lbnrind: NORMAL
- !ruby/object:SdtmLb
  studyid: ABC1
  usubjid: ABC1-202-06
  lbseq: 129
  lbtestcd: BUN
  lbtest: Blood Urea Nitrogen (BUN)
  lbstresn: 13.6
  lbstnrlo: 8
  lbstnrhi: 20
  visitnum: 2
  visit: BASELINE
  visitdy: 14
  lbnrind: NORMAL
- !ruby/object:SdtmLb
  studyid: ABC1
  usubjid: ABC1-202-06
  lbseq: 129
  lbtestcd: CA
  lbtest: Calcium
  lbstresn: 9.82
  lbstnrlo: 8.5
  lbstnrhi: 10.5
  visitnum: 2
  visit: BASELINE
  visitdy: 14
  lbnrind: NORMAL
- !ruby/object:SdtmLb
  studyid: ABC1
  usubjid: ABC1-202-06
  lbseq: 129
  lbtestcd: GLUC
  lbtest: Glucose
  lbstresn: 92.6
  lbstnrlo: 60
  lbstnrhi: 115
  visitnum: 2
  visit: BASELINE
  visitdy: 14
  lbnrind: NORMAL
- !ruby/object:SdtmLb
  studyid: ABC1
  usubjid: ABC1-201-06
  lbseq: 130
  lbtestcd: ALB
  lbtest: Albumin
  lbstresn: 3.7
  lbstnrlo: 3.4
  lbstnrhi: 4.7
  visitnum: 1
  visit: SCREENING
  visitdy: 14
  lbnrind: NORMAL
- !ruby/object:SdtmLb
  studyid: ABC1
  usubjid: ABC1-201-06
  lbseq: 130
  lbtestcd: BUN
  lbtest: Blood Urea Nitrogen (BUN)
  lbstresn: 13.3
  lbstnrlo: 8
  lbstnrhi: 20
  visitnum: 1
  visit: SCREENING
  visitdy: 14
  lbnrind: NORMAL
- !ruby/object:SdtmLb
  studyid: ABC1
  usubjid: ABC1-201-06
  lbseq: 130
  lbtestcd: CA
  lbtest: Calcium
  lbstresn: 8.63
  lbstnrlo: 8.5
  lbstnrhi: 10.5
  visitnum: 1
  visit: SCREENING
  visitdy: 14
  lbnrind: NORMAL
- !ruby/object:SdtmLb
  studyid: ABC1
  usubjid: ABC1-201-06
  lbseq: 130
  lbtestcd: GLUC
  lbtest: Glucose
  lbstresn: 80.0
  lbstnrlo: 60
  lbstnrhi: 115
  visitnum: 1
  visit: SCREENING
  visitdy: 14
  lbnrind: NORMAL
- !ruby/object:SdtmLb
  studyid: ABC1
  usubjid: ABC1-201-06
  lbseq: 131
  lbtestcd: ALB
  lbtest: Albumin
  lbstresn: 3.7
  lbstnrlo: 3.4
  lbstnrhi: 4.7
  visitnum: 2
  visit: BASELINE
  visitdy: 14
  lbnrind: NORMAL
- !ruby/object:SdtmLb
  studyid: ABC1
  usubjid: ABC1-201-06
  lbseq: 131
  lbtestcd: BUN
  lbtest: Blood Urea Nitrogen (BUN)
  lbstresn: 11.6
  lbstnrlo: 8
  lbstnrhi: 20
  visitnum: 2
  visit: BASELINE
  visitdy: 14
  lbnrind: NORMAL
- !ruby/object:SdtmLb
  studyid: ABC1
  usubjid: ABC1-201-06
  lbseq: 131
  lbtestcd: CA
  lbtest: Calcium
  lbstresn: 9.39
  lbstnrlo: 8.5
  lbstnrhi: 10.5
  visitnum: 2
  visit: BASELINE
  visitdy: 14
  lbnrind: NORMAL
- !ruby/object:SdtmLb
  studyid: ABC1
  usubjid: ABC1-201-06
  lbseq: 131
  lbtestcd: GLUC
  lbtest: Glucose
  lbstresn: 84.9
  lbstnrlo: 60
  lbstnrhi: 115
  visitnum: 2
  visit: BASELINE
  visitdy: 14
  lbnrind: NORMAL
- !ruby/object:SdtmLb
  studyid: ABC1
  usubjid: ABC1-201-06
  lbseq: 132
  lbtestcd: ALB
  lbtest: Albumin
  lbstresn: 4.3
  lbstnrlo: 3.4
  lbstnrhi: 4.7
  visitnum: 3
  visit: VISIT 2
  visitdy: 14
  lbnrind: NORMAL
- !ruby/object:SdtmLb
  studyid: ABC1
  usubjid: ABC1-201-06
  lbseq: 132
  lbtestcd: BUN
  lbtest: Blood Urea Nitrogen (BUN)
  lbstresn: 12.6
  lbstnrlo: 8
  lbstnrhi: 20
  visitnum: 3
  visit: VISIT 2
  visitdy: 14
  lbnrind: NORMAL
- !ruby/object:SdtmLb
  studyid: ABC1
  usubjid: ABC1-201-06
  lbseq: 132
  lbtestcd: CA
  lbtest: Calcium
  lbstresn: 9.73
  lbstnrlo: 8.5
  lbstnrhi: 10.5
  visitnum: 3
  visit: VISIT 2
  visitdy: 14
  lbnrind: NORMAL
- !ruby/object:SdtmLb
  studyid: ABC1
  usubjid: ABC1-201-06
  lbseq: 132
  lbtestcd: GLUC
  lbtest: Glucose
  lbstresn: 70.0
  lbstnrlo: 60
  lbstnrhi: 115
  visitnum: 3
  visit: VISIT 2
  visitdy: 14
  lbnrind: NORMAL
- !ruby/object:SdtmLb
  studyid: ABC1
  usubjid: ABC1-201-06
  lbseq: 133
  lbtestcd: ALB
  lbtest: Albumin
  lbstresn: 4.1
  lbstnrlo: 3.4
  lbstnrhi: 4.7
  visitnum: 4
  visit: VISIT 3
  visitdy: 14
  lbnrind: NORMAL
- !ruby/object:SdtmLb
  studyid: ABC1
  usubjid: ABC1-201-06
  lbseq: 133
  lbtestcd: BUN
  lbtest: Blood Urea Nitrogen (BUN)
  lbstresn: 11.1
  lbstnrlo: 8
  lbstnrhi: 20
  visitnum: 4
  visit: VISIT 3
  visitdy: 14
  lbnrind: NORMAL
- !ruby/object:SdtmLb
  studyid: ABC1
  usubjid: ABC1-201-06
  lbseq: 133
  lbtestcd: CA
  lbtest: Calcium
  lbstresn: 9.33
  lbstnrlo: 8.5
  lbstnrhi: 10.5
  visitnum: 4
  visit: VISIT 3
  visitdy: 14
  lbnrind: NORMAL
- !ruby/object:SdtmLb
  studyid: ABC1
  usubjid: ABC1-201-06
  lbseq: 133
  lbtestcd: GLUC
  lbtest: Glucose
  lbstresn: 81.3
  lbstnrlo: 60
  lbstnrhi: 115
  visitnum: 4
  visit: VISIT 3
  visitdy: 14
  lbnrind: NORMAL
- !ruby/object:SdtmLb
  studyid: ABC1
  usubjid: ABC1-201-06
  lbseq: 134
  lbtestcd: ALB
  lbtest: Albumin
  lbstresn: 4.0
  lbstnrlo: 3.4
  lbstnrhi: 4.7
  visitnum: 5
  visit: VISIT 4
  visitdy: 14
  lbnrind: NORMAL
- !ruby/object:SdtmLb
  studyid: ABC1
  usubjid: ABC1-201-06
  lbseq: 134
  lbtestcd: BUN
  lbtest: Blood Urea Nitrogen (BUN)
  lbstresn: 14.5
  lbstnrlo: 8
  lbstnrhi: 20
  visitnum: 5
  visit: VISIT 4
  visitdy: 14
  lbnrind: NORMAL
- !ruby/object:SdtmLb
  studyid: ABC1
  usubjid: ABC1-201-06
  lbseq: 134
  lbtestcd: CA
  lbtest: Calcium
  lbstresn: 9.66
  lbstnrlo: 8.5
  lbstnrhi: 10.5
  visitnum: 5
  visit: VISIT 4
  visitdy: 14
  lbnrind: NORMAL
- !ruby/object:SdtmLb
  studyid: ABC1
  usubjid: ABC1-201-06
  lbseq: 134
  lbtestcd: GLUC
  lbtest: Glucose
  lbstresn: 89.9
  lbstnrlo: 60
  lbstnrhi: 115
  visitnum: 5
  visit: VISIT 4
  visitdy: 14
  lbnrind: NORMAL
- !ruby/object:SdtmLb
  studyid: ABC1
  usubjid: ABC1-201-06
  lbseq: 135
  lbtestcd: ALB
  lbtest: Albumin
  lbstresn: 4.1
  lbstnrlo: 3.4
  lbstnrhi: 4.7
  visitnum: 6
  visit: VISIT 5
  visitdy: 14
  lbnrind: NORMAL
- !ruby/object:SdtmLb
  studyid: ABC1
  usubjid: ABC1-201-06
  lbseq: 135
  lbtestcd: BUN
  lbtest: Blood Urea Nitrogen (BUN)
  lbstresn: 16.0
  lbstnrlo: 8
  lbstnrhi: 20
  visitnum: 6
  visit: VISIT 5
  visitdy: 14
  lbnrind: NORMAL
- !ruby/object:SdtmLb
  studyid: ABC1
  usubjid: ABC1-201-06
  lbseq: 135
  lbtestcd: CA
  lbtest: Calcium
  lbstresn: 9.42
  lbstnrlo: 8.5
  lbstnrhi: 10.5
  visitnum: 6
  visit: VISIT 5
  visitdy: 14
  lbnrind: NORMAL
- !ruby/object:SdtmLb
  studyid: ABC1
  usubjid: ABC1-201-06
  lbseq: 135
  lbtestcd: GLUC
  lbtest: Glucose
  lbstresn: 93.2
  lbstnrlo: 60
  lbstnrhi: 115
  visitnum: 6
  visit: VISIT 5
  visitdy: 14
  lbnrind: NORMAL
- !ruby/object:SdtmLb
  studyid: ABC1
  usubjid: ABC1-201-06
  lbseq: 136
  lbtestcd: ALB
  lbtest: Albumin
  lbstresn: 3.6
  lbstnrlo: 3.4
  lbstnrhi: 4.7
  visitnum: 7
  visit: VISIT 6
  visitdy: 14
  lbnrind: NORMAL
- !ruby/object:SdtmLb
  studyid: ABC1
  usubjid: ABC1-201-06
  lbseq: 136
  lbtestcd: BUN
  lbtest: Blood Urea Nitrogen (BUN)
  lbstresn: 14.5
  lbstnrlo: 8
  lbstnrhi: 20
  visitnum: 7
  visit: VISIT 6
  visitdy: 14
  lbnrind: NORMAL
- !ruby/object:SdtmLb
  studyid: ABC1
  usubjid: ABC1-201-06
  lbseq: 136
  lbtestcd: CA
  lbtest: Calcium
  lbstresn: 9.63
  lbstnrlo: 8.5
  lbstnrhi: 10.5
  visitnum: 7
  visit: VISIT 6
  visitdy: 14
  lbnrind: NORMAL
- !ruby/object:SdtmLb
  studyid: ABC1
  usubjid: ABC1-201-06
  lbseq: 136
  lbtestcd: GLUC
  lbtest: Glucose
  lbstresn: 67.2
  lbstnrlo: 60
  lbstnrhi: 115
  visitnum: 7
  visit: VISIT 6
  visitdy: 14
  lbnrind: NORMAL
- !ruby/object:SdtmLb
  studyid: ABC1
  usubjid: ABC1-101-04
  lbseq: 137
  lbtestcd: ALB
  lbtest: Albumin
  lbstresn: 4.8
  lbstnrlo: 3.4
  lbstnrhi: 4.7
  visitnum: 1
  visit: SCREENING
  visitdy: 14
  lbnrind: HIGH
- !ruby/object:SdtmLb
  studyid: ABC1
  usubjid: ABC1-101-04
  lbseq: 137
  lbtestcd: BUN
  lbtest: Blood Urea Nitrogen (BUN)
  lbstresn: 15.5
  lbstnrlo: 8
  lbstnrhi: 20
  visitnum: 1
  visit: SCREENING
  visitdy: 14
  lbnrind: NORMAL
- !ruby/object:SdtmLb
  studyid: ABC1
  usubjid: ABC1-101-04
  lbseq: 137
  lbtestcd: CA
  lbtest: Calcium
  lbstresn: 10.28
  lbstnrlo: 8.5
  lbstnrhi: 10.5
  visitnum: 1
  visit: SCREENING
  visitdy: 14
  lbnrind: NORMAL
- !ruby/object:SdtmLb
  studyid: ABC1
  usubjid: ABC1-101-04
  lbseq: 137
  lbtestcd: GLUC
  lbtest: Glucose
  lbstresn: 79.6
  lbstnrlo: 60
  lbstnrhi: 115
  visitnum: 1
  visit: SCREENING
  visitdy: 14
  lbnrind: NORMAL
- !ruby/object:SdtmLb
  studyid: ABC1
  usubjid: ABC1-101-04
  lbseq: 138
  lbtestcd: ALB
  lbtest: Albumin
  lbstresn: 4.3
  lbstnrlo: 3.4
  lbstnrhi: 4.7
  visitnum: 2
  visit: BASELINE
  visitdy: 14
  lbnrind: NORMAL
- !ruby/object:SdtmLb
  studyid: ABC1
  usubjid: ABC1-101-04
  lbseq: 138
  lbtestcd: BUN
  lbtest: Blood Urea Nitrogen (BUN)
  lbstresn: 13.4
  lbstnrlo: 8
  lbstnrhi: 20
  visitnum: 2
  visit: BASELINE
  visitdy: 14
  lbnrind: NORMAL
- !ruby/object:SdtmLb
  studyid: ABC1
  usubjid: ABC1-101-04
  lbseq: 138
  lbtestcd: CA
  lbtest: Calcium
  lbstresn: 10.32
  lbstnrlo: 8.5
  lbstnrhi: 10.5
  visitnum: 2
  visit: BASELINE
  visitdy: 14
  lbnrind: NORMAL
- !ruby/object:SdtmLb
  studyid: ABC1
  usubjid: ABC1-101-04
  lbseq: 138
  lbtestcd: GLUC
  lbtest: Glucose
  lbstresn: 116.3
  lbstnrlo: 60
  lbstnrhi: 115
  visitnum: 2
  visit: BASELINE
  visitdy: 14
  lbnrind: HIGH
- !ruby/object:SdtmLb
  studyid: ABC1
  usubjid: ABC1-101-04
  lbseq: 139
  lbtestcd: ALB
  lbtest: Albumin
  lbstresn: 4.3
  lbstnrlo: 3.4
  lbstnrhi: 4.7
  visitnum: 3
  visit: VISIT 2
  visitdy: 14
  lbnrind: NORMAL
- !ruby/object:SdtmLb
  studyid: ABC1
  usubjid: ABC1-101-04
  lbseq: 139
  lbtestcd: BUN
  lbtest: Blood Urea Nitrogen (BUN)
  lbstresn: 10.1
  lbstnrlo: 8
  lbstnrhi: 20
  visitnum: 3
  visit: VISIT 2
  visitdy: 14
  lbnrind: NORMAL
- !ruby/object:SdtmLb
  studyid: ABC1
  usubjid: ABC1-101-04
  lbseq: 139
  lbtestcd: CA
  lbtest: Calcium
  lbstresn: 9.13
  lbstnrlo: 8.5
  lbstnrhi: 10.5
  visitnum: 3
  visit: VISIT 2
  visitdy: 14
  lbnrind: NORMAL
- !ruby/object:SdtmLb
  studyid: ABC1
  usubjid: ABC1-101-04
  lbseq: 139
  lbtestcd: GLUC
  lbtest: Glucose
  lbstresn: 97.9
  lbstnrlo: 60
  lbstnrhi: 115
  visitnum: 3
  visit: VISIT 2
  visitdy: 14
  lbnrind: NORMAL
- !ruby/object:SdtmLb
  studyid: ABC1
  usubjid: ABC1-101-04
  lbseq: 140
  lbtestcd: ALB
  lbtest: Albumin
  lbstresn: 4.1
  lbstnrlo: 3.4
  lbstnrhi: 4.7
  visitnum: 4
  visit: VISIT 3
  visitdy: 14
  lbnrind: NORMAL
- !ruby/object:SdtmLb
  studyid: ABC1
  usubjid: ABC1-101-04
  lbseq: 140
  lbtestcd: BUN
  lbtest: Blood Urea Nitrogen (BUN)
  lbstresn: 20.4
  lbstnrlo: 8
  lbstnrhi: 20
  visitnum: 4
  visit: VISIT 3
  visitdy: 14
  lbnrind: HIGH
- !ruby/object:SdtmLb
  studyid: ABC1
  usubjid: ABC1-101-04
  lbseq: 140
  lbtestcd: CA
  lbtest: Calcium
  lbstresn: 9.49
  lbstnrlo: 8.5
  lbstnrhi: 10.5
  visitnum: 4
  visit: VISIT 3
  visitdy: 14
  lbnrind: NORMAL
- !ruby/object:SdtmLb
  studyid: ABC1
  usubjid: ABC1-101-04
  lbseq: 140
  lbtestcd: GLUC
  lbtest: Glucose
  lbstresn: 74.3
  lbstnrlo: 60
  lbstnrhi: 115
  visitnum: 4
  visit: VISIT 3
  visitdy: 14
  lbnrind: NORMAL
- !ruby/object:SdtmLb
  studyid: ABC1
  usubjid: ABC1-101-04
  lbseq: 141
  lbtestcd: ALB
  lbtest: Albumin
  lbstresn: 3.9
  lbstnrlo: 3.4
  lbstnrhi: 4.7
  visitnum: 5
  visit: VISIT 4
  visitdy: 14
  lbnrind: NORMAL
- !ruby/object:SdtmLb
  studyid: ABC1
  usubjid: ABC1-101-04
  lbseq: 141
  lbtestcd: BUN
  lbtest: Blood Urea Nitrogen (BUN)
  lbstresn: 21.2
  lbstnrlo: 8
  lbstnrhi: 20
  visitnum: 5
  visit: VISIT 4
  visitdy: 14
  lbnrind: HIGH
- !ruby/object:SdtmLb
  studyid: ABC1
  usubjid: ABC1-101-04
  lbseq: 141
  lbtestcd: CA
  lbtest: Calcium
  lbstresn: 9.89
  lbstnrlo: 8.5
  lbstnrhi: 10.5
  visitnum: 5
  visit: VISIT 4
  visitdy: 14
  lbnrind: NORMAL
- !ruby/object:SdtmLb
  studyid: ABC1
  usubjid: ABC1-101-04
  lbseq: 141
  lbtestcd: GLUC
  lbtest: Glucose
  lbstresn: 89.8
  lbstnrlo: 60
  lbstnrhi: 115
  visitnum: 5
  visit: VISIT 4
  visitdy: 14
  lbnrind: NORMAL
- !ruby/object:SdtmLb
  studyid: ABC1
  usubjid: ABC1-302-02
  lbseq: 142
  lbtestcd: ALB
  lbtest: Albumin
  lbstresn: 3.9
  lbstnrlo: 3.4
  lbstnrhi: 4.7
  visitnum: 1
  visit: SCREENING
  visitdy: 14
  lbnrind: NORMAL
- !ruby/object:SdtmLb
  studyid: ABC1
  usubjid: ABC1-302-02
  lbseq: 142
  lbtestcd: BUN
  lbtest: Blood Urea Nitrogen (BUN)
  lbstresn: 15.5
  lbstnrlo: 8
  lbstnrhi: 20
  visitnum: 1
  visit: SCREENING
  visitdy: 14
  lbnrind: NORMAL
- !ruby/object:SdtmLb
  studyid: ABC1
  usubjid: ABC1-302-02
  lbseq: 142
  lbtestcd: CA
  lbtest: Calcium
  lbstresn: 9.71
  lbstnrlo: 8.5
  lbstnrhi: 10.5
  visitnum: 1
  visit: SCREENING
  visitdy: 14
  lbnrind: NORMAL
- !ruby/object:SdtmLb
  studyid: ABC1
  usubjid: ABC1-302-02
  lbseq: 142
  lbtestcd: GLUC
  lbtest: Glucose
  lbstresn: 85.9
  lbstnrlo: 60
  lbstnrhi: 115
  visitnum: 1
  visit: SCREENING
  visitdy: 14
  lbnrind: NORMAL
- !ruby/object:SdtmLb
  studyid: ABC1
  usubjid: ABC1-302-02
  lbseq: 143
  lbtestcd: ALB
  lbtest: Albumin
  lbstresn: 3.7
  lbstnrlo: 3.4
  lbstnrhi: 4.7
  visitnum: 2
  visit: BASELINE
  visitdy: 14
  lbnrind: NORMAL
- !ruby/object:SdtmLb
  studyid: ABC1
  usubjid: ABC1-302-02
  lbseq: 143
  lbtestcd: BUN
  lbtest: Blood Urea Nitrogen (BUN)
  lbstresn: 17.8
  lbstnrlo: 8
  lbstnrhi: 20
  visitnum: 2
  visit: BASELINE
  visitdy: 14
  lbnrind: NORMAL
- !ruby/object:SdtmLb
  studyid: ABC1
  usubjid: ABC1-302-02
  lbseq: 143
  lbtestcd: CA
  lbtest: Calcium
  lbstresn: 8.99
  lbstnrlo: 8.5
  lbstnrhi: 10.5
  visitnum: 2
  visit: BASELINE
  visitdy: 14
  lbnrind: NORMAL
- !ruby/object:SdtmLb
  studyid: ABC1
  usubjid: ABC1-302-02
  lbseq: 143
  lbtestcd: GLUC
  lbtest: Glucose
  lbstresn: 96.8
  lbstnrlo: 60
  lbstnrhi: 115
  visitnum: 2
  visit: BASELINE
  visitdy: 14
  lbnrind: NORMAL
- !ruby/object:SdtmLb
  studyid: ABC1
  usubjid: ABC1-302-02
  lbseq: 144
  lbtestcd: ALB
  lbtest: Albumin
  lbstresn: 4.1
  lbstnrlo: 3.4
  lbstnrhi: 4.7
  visitnum: 3
  visit: VISIT 2
  visitdy: 14
  lbnrind: NORMAL
- !ruby/object:SdtmLb
  studyid: ABC1
  usubjid: ABC1-302-02
  lbseq: 144
  lbtestcd: BUN
  lbtest: Blood Urea Nitrogen (BUN)
  lbstresn: 13.3
  lbstnrlo: 8
  lbstnrhi: 20
  visitnum: 3
  visit: VISIT 2
  visitdy: 14
  lbnrind: NORMAL
- !ruby/object:SdtmLb
  studyid: ABC1
  usubjid: ABC1-302-02
  lbseq: 144
  lbtestcd: CA
  lbtest: Calcium
  lbstresn: 10.33
  lbstnrlo: 8.5
  lbstnrhi: 10.5
  visitnum: 3
  visit: VISIT 2
  visitdy: 14
  lbnrind: NORMAL
- !ruby/object:SdtmLb
  studyid: ABC1
  usubjid: ABC1-302-02
  lbseq: 144
  lbtestcd: GLUC
  lbtest: Glucose
  lbstresn: 87.1
  lbstnrlo: 60
  lbstnrhi: 115
  visitnum: 3
  visit: VISIT 2
  visitdy: 14
  lbnrind: NORMAL
- !ruby/object:SdtmLb
  studyid: ABC1
  usubjid: ABC1-303-04
  lbseq: 145
  lbtestcd: ALB
  lbtest: Albumin
  lbstresn: 3.7
  lbstnrlo: 3.4
  lbstnrhi: 4.7
  visitnum: 1
  visit: SCREENING
  visitdy: 14
  lbnrind: NORMAL
- !ruby/object:SdtmLb
  studyid: ABC1
  usubjid: ABC1-303-04
  lbseq: 145
  lbtestcd: BUN
  lbtest: Blood Urea Nitrogen (BUN)
  lbstresn: 10.7
  lbstnrlo: 8
  lbstnrhi: 20
  visitnum: 1
  visit: SCREENING
  visitdy: 14
  lbnrind: NORMAL
- !ruby/object:SdtmLb
  studyid: ABC1
  usubjid: ABC1-303-04
  lbseq: 145
  lbtestcd: CA
  lbtest: Calcium
  lbstresn: 9.82
  lbstnrlo: 8.5
  lbstnrhi: 10.5
  visitnum: 1
  visit: SCREENING
  visitdy: 14
  lbnrind: NORMAL
- !ruby/object:SdtmLb
  studyid: ABC1
  usubjid: ABC1-303-04
  lbseq: 145
  lbtestcd: GLUC
  lbtest: Glucose
  lbstresn: 59.9
  lbstnrlo: 60
  lbstnrhi: 115
  visitnum: 1
  visit: SCREENING
  visitdy: 14
  lbnrind: LOW
- !ruby/object:SdtmLb
  studyid: ABC1
  usubjid: ABC1-303-04
  lbseq: 146
  lbtestcd: ALB
  lbtest: Albumin
  lbstresn: 3.9
  lbstnrlo: 3.4
  lbstnrhi: 4.7
  visitnum: 2
  visit: BASELINE
  visitdy: 14
  lbnrind: NORMAL
- !ruby/object:SdtmLb
  studyid: ABC1
  usubjid: ABC1-303-04
  lbseq: 146
  lbtestcd: BUN
  lbtest: Blood Urea Nitrogen (BUN)
  lbstresn: 13.4
  lbstnrlo: 8
  lbstnrhi: 20
  visitnum: 2
  visit: BASELINE
  visitdy: 14
  lbnrind: NORMAL
- !ruby/object:SdtmLb
  studyid: ABC1
  usubjid: ABC1-303-04
  lbseq: 146
  lbtestcd: CA
  lbtest: Calcium
  lbstresn: 8.83
  lbstnrlo: 8.5
  lbstnrhi: 10.5
  visitnum: 2
  visit: BASELINE
  visitdy: 14
  lbnrind: NORMAL
- !ruby/object:SdtmLb
  studyid: ABC1
  usubjid: ABC1-303-04
  lbseq: 146
  lbtestcd: GLUC
  lbtest: Glucose
  lbstresn: 101.6
  lbstnrlo: 60
  lbstnrhi: 115
  visitnum: 2
  visit: BASELINE
  visitdy: 14
  lbnrind: NORMAL
- !ruby/object:SdtmLb
  studyid: ABC1
  usubjid: ABC1-303-04
  lbseq: 147
  lbtestcd: ALB
  lbtest: Albumin
  lbstresn: 4.1
  lbstnrlo: 3.4
  lbstnrhi: 4.7
  visitnum: 3
  visit: VISIT 2
  visitdy: 14
  lbnrind: NORMAL
- !ruby/object:SdtmLb
  studyid: ABC1
  usubjid: ABC1-303-04
  lbseq: 147
  lbtestcd: BUN
  lbtest: Blood Urea Nitrogen (BUN)
  lbstresn: 14.9
  lbstnrlo: 8
  lbstnrhi: 20
  visitnum: 3
  visit: VISIT 2
  visitdy: 14
  lbnrind: NORMAL
- !ruby/object:SdtmLb
  studyid: ABC1
  usubjid: ABC1-303-04
  lbseq: 147
  lbtestcd: CA
  lbtest: Calcium
  lbstresn: 9.51
  lbstnrlo: 8.5
  lbstnrhi: 10.5
  visitnum: 3
  visit: VISIT 2
  visitdy: 14
  lbnrind: NORMAL
- !ruby/object:SdtmLb
  studyid: ABC1
  usubjid: ABC1-303-04
  lbseq: 147
  lbtestcd: GLUC
  lbtest: Glucose
  lbstresn: 119.8
  lbstnrlo: 60
  lbstnrhi: 115
  visitnum: 3
  visit: VISIT 2
  visitdy: 14
  lbnrind: HIGH
- !ruby/object:SdtmLb
  studyid: ABC1
  usubjid: ABC1-303-04
  lbseq: 148
  lbtestcd: ALB
  lbtest: Albumin
  lbstresn: 3.8
  lbstnrlo: 3.4
  lbstnrhi: 4.7
  visitnum: 4
  visit: VISIT 3
  visitdy: 14
  lbnrind: NORMAL
- !ruby/object:SdtmLb
  studyid: ABC1
  usubjid: ABC1-303-04
  lbseq: 148
  lbtestcd: BUN
  lbtest: Blood Urea Nitrogen (BUN)
  lbstresn: 16.8
  lbstnrlo: 8
  lbstnrhi: 20
  visitnum: 4
  visit: VISIT 3
  visitdy: 14
  lbnrind: NORMAL
- !ruby/object:SdtmLb
  studyid: ABC1
  usubjid: ABC1-303-04
  lbseq: 148
  lbtestcd: CA
  lbtest: Calcium
  lbstresn: 8.78
  lbstnrlo: 8.5
  lbstnrhi: 10.5
  visitnum: 4
  visit: VISIT 3
  visitdy: 14
  lbnrind: NORMAL
- !ruby/object:SdtmLb
  studyid: ABC1
  usubjid: ABC1-303-04
  lbseq: 148
  lbtestcd: GLUC
  lbtest: Glucose
  lbstresn: 74.8
  lbstnrlo: 60
  lbstnrhi: 115
  visitnum: 4
  visit: VISIT 3
  visitdy: 14
  lbnrind: NORMAL
- !ruby/object:SdtmLb
  studyid: ABC1
  usubjid: ABC1-303-04
  lbseq: 149
  lbtestcd: ALB
  lbtest: Albumin
  lbstresn: 4.0
  lbstnrlo: 3.4
  lbstnrhi: 4.7
  visitnum: 5
  visit: VISIT 4
  visitdy: 14
  lbnrind: NORMAL
- !ruby/object:SdtmLb
  studyid: ABC1
  usubjid: ABC1-303-04
  lbseq: 149
  lbtestcd: BUN
  lbtest: Blood Urea Nitrogen (BUN)
  lbstresn: 12.2
  lbstnrlo: 8
  lbstnrhi: 20
  visitnum: 5
  visit: VISIT 4
  visitdy: 14
  lbnrind: NORMAL
- !ruby/object:SdtmLb
  studyid: ABC1
  usubjid: ABC1-303-04
  lbseq: 149
  lbtestcd: CA
  lbtest: Calcium
  lbstresn: 10.01
  lbstnrlo: 8.5
  lbstnrhi: 10.5
  visitnum: 5
  visit: VISIT 4
  visitdy: 14
  lbnrind: NORMAL
- !ruby/object:SdtmLb
  studyid: ABC1
  usubjid: ABC1-303-04
  lbseq: 149
  lbtestcd: GLUC
  lbtest: Glucose
  lbstresn: 95.1
  lbstnrlo: 60
  lbstnrhi: 115
  visitnum: 5
  visit: VISIT 4
  visitdy: 14
  lbnrind: NORMAL
- !ruby/object:SdtmLb
  studyid: ABC1
  usubjid: ABC1-303-04
  lbseq: 150
  lbtestcd: ALB
  lbtest: Albumin
  lbstresn: 4.3
  lbstnrlo: 3.4
  lbstnrhi: 4.7
  visitnum: 6
  visit: VISIT 5
  visitdy: 14
  lbnrind: NORMAL
- !ruby/object:SdtmLb
  studyid: ABC1
  usubjid: ABC1-303-04
  lbseq: 150
  lbtestcd: BUN
  lbtest: Blood Urea Nitrogen (BUN)
  lbstresn: 15.2
  lbstnrlo: 8
  lbstnrhi: 20
  visitnum: 6
  visit: VISIT 5
  visitdy: 14
  lbnrind: NORMAL
- !ruby/object:SdtmLb
  studyid: ABC1
  usubjid: ABC1-303-04
  lbseq: 150
  lbtestcd: CA
  lbtest: Calcium
  lbstresn: 9.32
  lbstnrlo: 8.5
  lbstnrhi: 10.5
  visitnum: 6
  visit: VISIT 5
  visitdy: 14
  lbnrind: NORMAL
- !ruby/object:SdtmLb
  studyid: ABC1
  usubjid: ABC1-303-04
  lbseq: 150
  lbtestcd: GLUC
  lbtest: Glucose
  lbstresn: 91.1
  lbstnrlo: 60
  lbstnrhi: 115
  visitnum: 6
  visit: VISIT 5
  visitdy: 14
  lbnrind: NORMAL
- !ruby/object:SdtmLb
  studyid: ABC1
  usubjid: ABC1-303-04
  lbseq: 151
  lbtestcd: ALB
  lbtest: Albumin
  lbstresn: 4.2
  lbstnrlo: 3.4
  lbstnrhi: 4.7
  visitnum: 7
  visit: VISIT 6
  visitdy: 14
  lbnrind: NORMAL
- !ruby/object:SdtmLb
  studyid: ABC1
  usubjid: ABC1-303-04
  lbseq: 151
  lbtestcd: BUN
  lbtest: Blood Urea Nitrogen (BUN)
  lbstresn: 8.1
  lbstnrlo: 8
  lbstnrhi: 20
  visitnum: 7
  visit: VISIT 6
  visitdy: 14
  lbnrind: NORMAL
- !ruby/object:SdtmLb
  studyid: ABC1
  usubjid: ABC1-303-04
  lbseq: 151
  lbtestcd: CA
  lbtest: Calcium
  lbstresn: 9.45
  lbstnrlo: 8.5
  lbstnrhi: 10.5
  visitnum: 7
  visit: VISIT 6
  visitdy: 14
  lbnrind: NORMAL
- !ruby/object:SdtmLb
  studyid: ABC1
  usubjid: ABC1-303-04
  lbseq: 151
  lbtestcd: GLUC
  lbtest: Glucose
  lbstresn: 69.8
  lbstnrlo: 60
  lbstnrhi: 115
  visitnum: 7
  visit: VISIT 6
  visitdy: 14
  lbnrind: NORMAL
- !ruby/object:SdtmLb
  studyid: ABC1
  usubjid: ABC1-201-07
  lbseq: 152
  lbtestcd: ALB
  lbtest: Albumin
  lbstresn: 3.3
  lbstnrlo: 3.4
  lbstnrhi: 4.7
  visitnum: 1
  visit: SCREENING
  visitdy: 14
  lbnrind: LOW
- !ruby/object:SdtmLb
  studyid: ABC1
  usubjid: ABC1-201-07
  lbseq: 152
  lbtestcd: BUN
  lbtest: Blood Urea Nitrogen (BUN)
  lbstresn: 9.0
  lbstnrlo: 8
  lbstnrhi: 20
  visitnum: 1
  visit: SCREENING
  visitdy: 14
  lbnrind: NORMAL
- !ruby/object:SdtmLb
  studyid: ABC1
  usubjid: ABC1-201-07
  lbseq: 152
  lbtestcd: CA
  lbtest: Calcium
  lbstresn: 8.45
  lbstnrlo: 8.5
  lbstnrhi: 10.5
  visitnum: 1
  visit: SCREENING
  visitdy: 14
  lbnrind: LOW
- !ruby/object:SdtmLb
  studyid: ABC1
  usubjid: ABC1-201-07
  lbseq: 152
  lbtestcd: GLUC
  lbtest: Glucose
  lbstresn: 72.4
  lbstnrlo: 60
  lbstnrhi: 115
  visitnum: 1
  visit: SCREENING
  visitdy: 14
  lbnrind: NORMAL
- !ruby/object:SdtmLb
  studyid: ABC1
  usubjid: ABC1-201-07
  lbseq: 153
  lbtestcd: ALB
  lbtest: Albumin
  lbstresn: 4.1
  lbstnrlo: 3.4
  lbstnrhi: 4.7
  visitnum: 2
  visit: BASELINE
  visitdy: 14
  lbnrind: NORMAL
- !ruby/object:SdtmLb
  studyid: ABC1
  usubjid: ABC1-201-07
  lbseq: 153
  lbtestcd: BUN
  lbtest: Blood Urea Nitrogen (BUN)
  lbstresn: 12.7
  lbstnrlo: 8
  lbstnrhi: 20
  visitnum: 2
  visit: BASELINE
  visitdy: 14
  lbnrind: NORMAL
- !ruby/object:SdtmLb
  studyid: ABC1
  usubjid: ABC1-201-07
  lbseq: 153
  lbtestcd: CA
  lbtest: Calcium
  lbstresn: 9.24
  lbstnrlo: 8.5
  lbstnrhi: 10.5
  visitnum: 2
  visit: BASELINE
  visitdy: 14
  lbnrind: NORMAL
- !ruby/object:SdtmLb
  studyid: ABC1
  usubjid: ABC1-201-07
  lbseq: 153
  lbtestcd: GLUC
  lbtest: Glucose
  lbstresn: 75.4
  lbstnrlo: 60
  lbstnrhi: 115
  visitnum: 2
  visit: BASELINE
  visitdy: 14
  lbnrind: NORMAL
- !ruby/object:SdtmLb
  studyid: ABC1
  usubjid: ABC1-201-07
  lbseq: 154
  lbtestcd: ALB
  lbtest: Albumin
  lbstresn: 3.6
  lbstnrlo: 3.4
  lbstnrhi: 4.7
  visitnum: 3
  visit: VISIT 2
  visitdy: 14
  lbnrind: NORMAL
- !ruby/object:SdtmLb
  studyid: ABC1
  usubjid: ABC1-201-07
  lbseq: 154
  lbtestcd: BUN
  lbtest: Blood Urea Nitrogen (BUN)
  lbstresn: 11.0
  lbstnrlo: 8
  lbstnrhi: 20
  visitnum: 3
  visit: VISIT 2
  visitdy: 14
  lbnrind: NORMAL
- !ruby/object:SdtmLb
  studyid: ABC1
  usubjid: ABC1-201-07
  lbseq: 154
  lbtestcd: CA
  lbtest: Calcium
  lbstresn: 9.72
  lbstnrlo: 8.5
  lbstnrhi: 10.5
  visitnum: 3
  visit: VISIT 2
  visitdy: 14
  lbnrind: NORMAL
- !ruby/object:SdtmLb
  studyid: ABC1
  usubjid: ABC1-201-07
  lbseq: 154
  lbtestcd: GLUC
  lbtest: Glucose
  lbstresn: 81.5
  lbstnrlo: 60
  lbstnrhi: 115
  visitnum: 3
  visit: VISIT 2
  visitdy: 14
  lbnrind: NORMAL
- !ruby/object:SdtmLb
  studyid: ABC1
  usubjid: ABC1-201-07
  lbseq: 155
  lbtestcd: ALB
  lbtest: Albumin
  lbstresn: 4.4
  lbstnrlo: 3.4
  lbstnrhi: 4.7
  visitnum: 4
  visit: VISIT 3
  visitdy: 14
  lbnrind: NORMAL
- !ruby/object:SdtmLb
  studyid: ABC1
  usubjid: ABC1-201-07
  lbseq: 155
  lbtestcd: BUN
  lbtest: Blood Urea Nitrogen (BUN)
  lbstresn: 13.0
  lbstnrlo: 8
  lbstnrhi: 20
  visitnum: 4
  visit: VISIT 3
  visitdy: 14
  lbnrind: NORMAL
- !ruby/object:SdtmLb
  studyid: ABC1
  usubjid: ABC1-201-07
  lbseq: 155
  lbtestcd: CA
  lbtest: Calcium
  lbstresn: 9.51
  lbstnrlo: 8.5
  lbstnrhi: 10.5
  visitnum: 4
  visit: VISIT 3
  visitdy: 14
  lbnrind: NORMAL
- !ruby/object:SdtmLb
  studyid: ABC1
  usubjid: ABC1-201-07
  lbseq: 155
  lbtestcd: GLUC
  lbtest: Glucose
  lbstresn: 86.0
  lbstnrlo: 60
  lbstnrhi: 115
  visitnum: 4
  visit: VISIT 3
  visitdy: 14
  lbnrind: NORMAL
- !ruby/object:SdtmLb
  studyid: ABC1
  usubjid: ABC1-202-07
  lbseq: 156
  lbtestcd: ALB
  lbtest: Albumin
  lbstresn: 3.8
  lbstnrlo: 3.4
  lbstnrhi: 4.7
  visitnum: 1
  visit: SCREENING
  visitdy: 14
  lbnrind: NORMAL
- !ruby/object:SdtmLb
  studyid: ABC1
  usubjid: ABC1-202-07
  lbseq: 156
  lbtestcd: BUN
  lbtest: Blood Urea Nitrogen (BUN)
  lbstresn: 15.8
  lbstnrlo: 8
  lbstnrhi: 20
  visitnum: 1
  visit: SCREENING
  visitdy: 14
  lbnrind: NORMAL
- !ruby/object:SdtmLb
  studyid: ABC1
  usubjid: ABC1-202-07
  lbseq: 156
  lbtestcd: CA
  lbtest: Calcium
  lbstresn: 9.4
  lbstnrlo: 8.5
  lbstnrhi: 10.5
  visitnum: 1
  visit: SCREENING
  visitdy: 14
  lbnrind: NORMAL
- !ruby/object:SdtmLb
  studyid: ABC1
  usubjid: ABC1-202-07
  lbseq: 156
  lbtestcd: GLUC
  lbtest: Glucose
  lbstresn: 92.3
  lbstnrlo: 60
  lbstnrhi: 115
  visitnum: 1
  visit: SCREENING
  visitdy: 14
  lbnrind: NORMAL
- !ruby/object:SdtmLb
  studyid: ABC1
  usubjid: ABC1-202-07
  lbseq: 157
  lbtestcd: ALB
  lbtest: Albumin
  lbstresn: 4.2
  lbstnrlo: 3.4
  lbstnrhi: 4.7
  visitnum: 2
  visit: BASELINE
  visitdy: 14
  lbnrind: NORMAL
- !ruby/object:SdtmLb
  studyid: ABC1
  usubjid: ABC1-202-07
  lbseq: 157
  lbtestcd: BUN
  lbtest: Blood Urea Nitrogen (BUN)
  lbstresn: 12.9
  lbstnrlo: 8
  lbstnrhi: 20
  visitnum: 2
  visit: BASELINE
  visitdy: 14
  lbnrind: NORMAL
- !ruby/object:SdtmLb
  studyid: ABC1
  usubjid: ABC1-202-07
  lbseq: 157
  lbtestcd: CA
  lbtest: Calcium
  lbstresn: 9.86
  lbstnrlo: 8.5
  lbstnrhi: 10.5
  visitnum: 2
  visit: BASELINE
  visitdy: 14
  lbnrind: NORMAL
- !ruby/object:SdtmLb
  studyid: ABC1
  usubjid: ABC1-202-07
  lbseq: 157
  lbtestcd: GLUC
  lbtest: Glucose
  lbstresn: 93.8
  lbstnrlo: 60
  lbstnrhi: 115
  visitnum: 2
  visit: BASELINE
  visitdy: 14
  lbnrind: NORMAL
- !ruby/object:SdtmLb
  studyid: ABC1
  usubjid: ABC1-202-07
  lbseq: 158
  lbtestcd: ALB
  lbtest: Albumin
  lbstresn: 4.2
  lbstnrlo: 3.4
  lbstnrhi: 4.7
  visitnum: 3
  visit: VISIT 2
  visitdy: 14
  lbnrind: NORMAL
- !ruby/object:SdtmLb
  studyid: ABC1
  usubjid: ABC1-202-07
  lbseq: 158
  lbtestcd: BUN
  lbtest: Blood Urea Nitrogen (BUN)
  lbstresn: 13.6
  lbstnrlo: 8
  lbstnrhi: 20
  visitnum: 3
  visit: VISIT 2
  visitdy: 14
  lbnrind: NORMAL
- !ruby/object:SdtmLb
  studyid: ABC1
  usubjid: ABC1-202-07
  lbseq: 158
  lbtestcd: CA
  lbtest: Calcium
  lbstresn: 9.2
  lbstnrlo: 8.5
  lbstnrhi: 10.5
  visitnum: 3
  visit: VISIT 2
  visitdy: 14
  lbnrind: NORMAL
- !ruby/object:SdtmLb
  studyid: ABC1
  usubjid: ABC1-202-07
  lbseq: 158
  lbtestcd: GLUC
  lbtest: Glucose
  lbstresn: 91.2
  lbstnrlo: 60
  lbstnrhi: 115
  visitnum: 3
  visit: VISIT 2
  visitdy: 14
  lbnrind: NORMAL
- !ruby/object:SdtmLb
  studyid: ABC1
  usubjid: ABC1-202-07
  lbseq: 159
  lbtestcd: ALB
  lbtest: Albumin
  lbstresn: 3.9
  lbstnrlo: 3.4
  lbstnrhi: 4.7
  visitnum: 4
  visit: VISIT 3
  visitdy: 14
  lbnrind: NORMAL
- !ruby/object:SdtmLb
  studyid: ABC1
  usubjid: ABC1-202-07
  lbseq: 159
  lbtestcd: BUN
  lbtest: Blood Urea Nitrogen (BUN)
  lbstresn: 18.6
  lbstnrlo: 8
  lbstnrhi: 20
  visitnum: 4
  visit: VISIT 3
  visitdy: 14
  lbnrind: NORMAL
- !ruby/object:SdtmLb
  studyid: ABC1
  usubjid: ABC1-202-07
  lbseq: 159
  lbtestcd: CA
  lbtest: Calcium
  lbstresn: 10.5
  lbstnrlo: 8.5
  lbstnrhi: 10.5
  visitnum: 4
  visit: VISIT 3
  visitdy: 14
  lbnrind: NORMAL
- !ruby/object:SdtmLb
  studyid: ABC1
  usubjid: ABC1-202-07
  lbseq: 159
  lbtestcd: GLUC
  lbtest: Glucose
  lbstresn: 87.4
  lbstnrlo: 60
  lbstnrhi: 115
  visitnum: 4
  visit: VISIT 3
  visitdy: 14
  lbnrind: NORMAL
- !ruby/object:SdtmLb
  studyid: ABC1
  usubjid: ABC1-202-07
  lbseq: 160
  lbtestcd: ALB
  lbtest: Albumin
  lbstresn: 4.4
  lbstnrlo: 3.4
  lbstnrhi: 4.7
  visitnum: 5
  visit: VISIT 4
  visitdy: 14
  lbnrind: NORMAL
- !ruby/object:SdtmLb
  studyid: ABC1
  usubjid: ABC1-202-07
  lbseq: 160
  lbtestcd: BUN
  lbtest: Blood Urea Nitrogen (BUN)
  lbstresn: 14.7
  lbstnrlo: 8
  lbstnrhi: 20
  visitnum: 5
  visit: VISIT 4
  visitdy: 14
  lbnrind: NORMAL
- !ruby/object:SdtmLb
  studyid: ABC1
  usubjid: ABC1-202-07
  lbseq: 160
  lbtestcd: CA
  lbtest: Calcium
  lbstresn: 9.26
  lbstnrlo: 8.5
  lbstnrhi: 10.5
  visitnum: 5
  visit: VISIT 4
  visitdy: 14
  lbnrind: NORMAL
- !ruby/object:SdtmLb
  studyid: ABC1
  usubjid: ABC1-202-07
  lbseq: 160
  lbtestcd: GLUC
  lbtest: Glucose
  lbstresn: 104.7
  lbstnrlo: 60
  lbstnrhi: 115
  visitnum: 5
  visit: VISIT 4
  visitdy: 14
  lbnrind: NORMAL
- !ruby/object:SdtmLb
  studyid: ABC1
  usubjid: ABC1-202-07
  lbseq: 161
  lbtestcd: ALB
  lbtest: Albumin
  lbstresn: 3.7
  lbstnrlo: 3.4
  lbstnrhi: 4.7
  visitnum: 6
  visit: VISIT 5
  visitdy: 14
  lbnrind: NORMAL
- !ruby/object:SdtmLb
  studyid: ABC1
  usubjid: ABC1-202-07
  lbseq: 161
  lbtestcd: BUN
  lbtest: Blood Urea Nitrogen (BUN)
  lbstresn: 10.2
  lbstnrlo: 8
  lbstnrhi: 20
  visitnum: 6
  visit: VISIT 5
  visitdy: 14
  lbnrind: NORMAL
- !ruby/object:SdtmLb
  studyid: ABC1
  usubjid: ABC1-202-07
  lbseq: 161
  lbtestcd: CA
  lbtest: Calcium
  lbstresn: 9.38
  lbstnrlo: 8.5
  lbstnrhi: 10.5
  visitnum: 6
  visit: VISIT 5
  visitdy: 14
  lbnrind: NORMAL
- !ruby/object:SdtmLb
  studyid: ABC1
  usubjid: ABC1-202-07
  lbseq: 161
  lbtestcd: GLUC
  lbtest: Glucose
  lbstresn: 64.3
  lbstnrlo: 60
  lbstnrhi: 115
  visitnum: 6
  visit: VISIT 5
  visitdy: 14
  lbnrind: NORMAL
- !ruby/object:SdtmLb
  studyid: ABC1
  usubjid: ABC1-202-07
  lbseq: 162
  lbtestcd: ALB
  lbtest: Albumin
  lbstresn: 4.1
  lbstnrlo: 3.4
  lbstnrhi: 4.7
  visitnum: 7
  visit: VISIT 6
  visitdy: 14
  lbnrind: NORMAL
- !ruby/object:SdtmLb
  studyid: ABC1
  usubjid: ABC1-202-07
  lbseq: 162
  lbtestcd: BUN
  lbtest: Blood Urea Nitrogen (BUN)
  lbstresn: 13.2
  lbstnrlo: 8
  lbstnrhi: 20
  visitnum: 7
  visit: VISIT 6
  visitdy: 14
  lbnrind: NORMAL
- !ruby/object:SdtmLb
  studyid: ABC1
  usubjid: ABC1-202-07
  lbseq: 162
  lbtestcd: CA
  lbtest: Calcium
  lbstresn: 9.22
  lbstnrlo: 8.5
  lbstnrhi: 10.5
  visitnum: 7
  visit: VISIT 6
  visitdy: 14
  lbnrind: NORMAL
- !ruby/object:SdtmLb
  studyid: ABC1
  usubjid: ABC1-202-07
  lbseq: 162
  lbtestcd: GLUC
  lbtest: Glucose
  lbstresn: 89.5
  lbstnrlo: 60
  lbstnrhi: 115
  visitnum: 7
  visit: VISIT 6
  visitdy: 14
  lbnrind: NORMAL
- !ruby/object:SdtmLb
  studyid: ABC1
  usubjid: ABC1-102-05
  lbseq: 163
  lbtestcd: ALB
  lbtest: Albumin
  lbstresn: 3.8
  lbstnrlo: 3.4
  lbstnrhi: 4.7
  visitnum: 1
  visit: SCREENING
  visitdy: 14
  lbnrind: NORMAL
- !ruby/object:SdtmLb
  studyid: ABC1
  usubjid: ABC1-102-05
  lbseq: 163
  lbtestcd: BUN
  lbtest: Blood Urea Nitrogen (BUN)
  lbstresn: 14.8
  lbstnrlo: 8
  lbstnrhi: 20
  visitnum: 1
  visit: SCREENING
  visitdy: 14
  lbnrind: NORMAL
- !ruby/object:SdtmLb
  studyid: ABC1
  usubjid: ABC1-102-05
  lbseq: 163
  lbtestcd: CA
  lbtest: Calcium
  lbstresn: 8.23
  lbstnrlo: 8.5
  lbstnrhi: 10.5
  visitnum: 1
  visit: SCREENING
  visitdy: 14
  lbnrind: LOW
- !ruby/object:SdtmLb
  studyid: ABC1
  usubjid: ABC1-102-05
  lbseq: 163
  lbtestcd: GLUC
  lbtest: Glucose
  lbstresn: 96.8
  lbstnrlo: 60
  lbstnrhi: 115
  visitnum: 1
  visit: SCREENING
  visitdy: 14
  lbnrind: NORMAL
- !ruby/object:SdtmLb
  studyid: ABC1
  usubjid: ABC1-102-05
  lbseq: 164
  lbtestcd: ALB
  lbtest: Albumin
  lbstresn: 4.0
  lbstnrlo: 3.4
  lbstnrhi: 4.7
  visitnum: 2
  visit: BASELINE
  visitdy: 14
  lbnrind: NORMAL
- !ruby/object:SdtmLb
  studyid: ABC1
  usubjid: ABC1-102-05
  lbseq: 164
  lbtestcd: BUN
  lbtest: Blood Urea Nitrogen (BUN)
  lbstresn: 14.9
  lbstnrlo: 8
  lbstnrhi: 20
  visitnum: 2
  visit: BASELINE
  visitdy: 14
  lbnrind: NORMAL
- !ruby/object:SdtmLb
  studyid: ABC1
  usubjid: ABC1-102-05
  lbseq: 164
  lbtestcd: CA
  lbtest: Calcium
  lbstresn: 9.97
  lbstnrlo: 8.5
  lbstnrhi: 10.5
  visitnum: 2
  visit: BASELINE
  visitdy: 14
  lbnrind: NORMAL
- !ruby/object:SdtmLb
  studyid: ABC1
  usubjid: ABC1-102-05
  lbseq: 164
  lbtestcd: GLUC
  lbtest: Glucose
  lbstresn: 90.8
  lbstnrlo: 60
  lbstnrhi: 115
  visitnum: 2
  visit: BASELINE
  visitdy: 14
  lbnrind: NORMAL
- !ruby/object:SdtmLb
  studyid: ABC1
  usubjid: ABC1-102-05
  lbseq: 165
  lbtestcd: ALB
  lbtest: Albumin
  lbstresn: 4.0
  lbstnrlo: 3.4
  lbstnrhi: 4.7
  visitnum: 3
  visit: VISIT 2
  visitdy: 14
  lbnrind: NORMAL
- !ruby/object:SdtmLb
  studyid: ABC1
  usubjid: ABC1-102-05
  lbseq: 165
  lbtestcd: BUN
  lbtest: Blood Urea Nitrogen (BUN)
  lbstresn: 15.0
  lbstnrlo: 8
  lbstnrhi: 20
  visitnum: 3
  visit: VISIT 2
  visitdy: 14
  lbnrind: NORMAL
- !ruby/object:SdtmLb
  studyid: ABC1
  usubjid: ABC1-102-05
  lbseq: 165
  lbtestcd: CA
  lbtest: Calcium
  lbstresn: 9.04
  lbstnrlo: 8.5
  lbstnrhi: 10.5
  visitnum: 3
  visit: VISIT 2
  visitdy: 14
  lbnrind: NORMAL
- !ruby/object:SdtmLb
  studyid: ABC1
  usubjid: ABC1-102-05
  lbseq: 165
  lbtestcd: GLUC
  lbtest: Glucose
  lbstresn: 96.7
  lbstnrlo: 60
  lbstnrhi: 115
  visitnum: 3
  visit: VISIT 2
  visitdy: 14
  lbnrind: NORMAL
- !ruby/object:SdtmLb
  studyid: ABC1
  usubjid: ABC1-102-05
  lbseq: 166
  lbtestcd: ALB
  lbtest: Albumin
  lbstresn: 4.2
  lbstnrlo: 3.4
  lbstnrhi: 4.7
  visitnum: 4
  visit: VISIT 3
  visitdy: 14
  lbnrind: NORMAL
- !ruby/object:SdtmLb
  studyid: ABC1
  usubjid: ABC1-102-05
  lbseq: 166
  lbtestcd: BUN
  lbtest: Blood Urea Nitrogen (BUN)
  lbstresn: 14.4
  lbstnrlo: 8
  lbstnrhi: 20
  visitnum: 4
  visit: VISIT 3
  visitdy: 14
  lbnrind: NORMAL
- !ruby/object:SdtmLb
  studyid: ABC1
  usubjid: ABC1-102-05
  lbseq: 166
  lbtestcd: CA
  lbtest: Calcium
  lbstresn: 8.86
  lbstnrlo: 8.5
  lbstnrhi: 10.5
  visitnum: 4
  visit: VISIT 3
  visitdy: 14
  lbnrind: NORMAL
- !ruby/object:SdtmLb
  studyid: ABC1
  usubjid: ABC1-102-05
  lbseq: 166
  lbtestcd: GLUC
  lbtest: Glucose
  lbstresn: 90.2
  lbstnrlo: 60
  lbstnrhi: 115
  visitnum: 4
  visit: VISIT 3
  visitdy: 14
  lbnrind: NORMAL
- !ruby/object:SdtmLb
  studyid: ABC1
  usubjid: ABC1-102-05
  lbseq: 167
  lbtestcd: ALB
  lbtest: Albumin
  lbstresn: 4.0
  lbstnrlo: 3.4
  lbstnrhi: 4.7
  visitnum: 5
  visit: VISIT 4
  visitdy: 14
  lbnrind: NORMAL
- !ruby/object:SdtmLb
  studyid: ABC1
  usubjid: ABC1-102-05
  lbseq: 167
  lbtestcd: BUN
  lbtest: Blood Urea Nitrogen (BUN)
  lbstresn: 11.2
  lbstnrlo: 8
  lbstnrhi: 20
  visitnum: 5
  visit: VISIT 4
  visitdy: 14
  lbnrind: NORMAL
- !ruby/object:SdtmLb
  studyid: ABC1
  usubjid: ABC1-102-05
  lbseq: 167
  lbtestcd: CA
  lbtest: Calcium
  lbstresn: 9.5
  lbstnrlo: 8.5
  lbstnrhi: 10.5
  visitnum: 5
  visit: VISIT 4
  visitdy: 14
  lbnrind: NORMAL
- !ruby/object:SdtmLb
  studyid: ABC1
  usubjid: ABC1-102-05
  lbseq: 167
  lbtestcd: GLUC
  lbtest: Glucose
  lbstresn: 96.4
  lbstnrlo: 60
  lbstnrhi: 115
  visitnum: 5
  visit: VISIT 4
  visitdy: 14
  lbnrind: NORMAL
- !ruby/object:SdtmLb
  studyid: ABC1
  usubjid: ABC1-102-05
  lbseq: 168
  lbtestcd: ALB
  lbtest: Albumin
  lbstresn: 4.1
  lbstnrlo: 3.4
  lbstnrhi: 4.7
  visitnum: 6
  visit: VISIT 5
  visitdy: 14
  lbnrind: NORMAL
- !ruby/object:SdtmLb
  studyid: ABC1
  usubjid: ABC1-102-05
  lbseq: 168
  lbtestcd: BUN
  lbtest: Blood Urea Nitrogen (BUN)
  lbstresn: 13.4
  lbstnrlo: 8
  lbstnrhi: 20
  visitnum: 6
  visit: VISIT 5
  visitdy: 14
  lbnrind: NORMAL
- !ruby/object:SdtmLb
  studyid: ABC1
  usubjid: ABC1-102-05
  lbseq: 168
  lbtestcd: CA
  lbtest: Calcium
  lbstresn: 9.75
  lbstnrlo: 8.5
  lbstnrhi: 10.5
  visitnum: 6
  visit: VISIT 5
  visitdy: 14
  lbnrind: NORMAL
- !ruby/object:SdtmLb
  studyid: ABC1
  usubjid: ABC1-102-05
  lbseq: 168
  lbtestcd: GLUC
  lbtest: Glucose
  lbstresn: 88.2
  lbstnrlo: 60
  lbstnrhi: 115
  visitnum: 6
  visit: VISIT 5
  visitdy: 14
  lbnrind: NORMAL
- !ruby/object:SdtmLb
  studyid: ABC1
  usubjid: ABC1-102-05
  lbseq: 169
  lbtestcd: ALB
  lbtest: Albumin
  lbstresn: 4.4
  lbstnrlo: 3.4
  lbstnrhi: 4.7
  visitnum: 7
  visit: VISIT 6
  visitdy: 14
  lbnrind: NORMAL
- !ruby/object:SdtmLb
  studyid: ABC1
  usubjid: ABC1-102-05
  lbseq: 169
  lbtestcd: BUN
  lbtest: Blood Urea Nitrogen (BUN)
  lbstresn: 12.2
  lbstnrlo: 8
  lbstnrhi: 20
  visitnum: 7
  visit: VISIT 6
  visitdy: 14
  lbnrind: NORMAL
- !ruby/object:SdtmLb
  studyid: ABC1
  usubjid: ABC1-102-05
  lbseq: 169
  lbtestcd: CA
  lbtest: Calcium
  lbstresn: 10.11
  lbstnrlo: 8.5
  lbstnrhi: 10.5
  visitnum: 7
  visit: VISIT 6
  visitdy: 14
  lbnrind: NORMAL
- !ruby/object:SdtmLb
  studyid: ABC1
  usubjid: ABC1-102-05
  lbseq: 169
  lbtestcd: GLUC
  lbtest: Glucose
  lbstresn: 79.3
  lbstnrlo: 60
  lbstnrhi: 115
  visitnum: 7
  visit: VISIT 6
  visitdy: 14
  lbnrind: NORMAL
- !ruby/object:SdtmLb
  studyid: ABC1
  usubjid: ABC1-102-06
  lbseq: 170
  lbtestcd: ALB
  lbtest: Albumin
  lbstresn: 3.6
  lbstnrlo: 3.4
  lbstnrhi: 4.7
  visitnum: 1
  visit: SCREENING
  visitdy: 14
  lbnrind: NORMAL
- !ruby/object:SdtmLb
  studyid: ABC1
  usubjid: ABC1-102-06
  lbseq: 170
  lbtestcd: BUN
  lbtest: Blood Urea Nitrogen (BUN)
  lbstresn: 17.2
  lbstnrlo: 8
  lbstnrhi: 20
  visitnum: 1
  visit: SCREENING
  visitdy: 14
  lbnrind: NORMAL
- !ruby/object:SdtmLb
  studyid: ABC1
  usubjid: ABC1-102-06
  lbseq: 170
  lbtestcd: CA
  lbtest: Calcium
  lbstresn: 9.6
  lbstnrlo: 8.5
  lbstnrhi: 10.5
  visitnum: 1
  visit: SCREENING
  visitdy: 14
  lbnrind: NORMAL
- !ruby/object:SdtmLb
  studyid: ABC1
  usubjid: ABC1-102-06
  lbseq: 170
  lbtestcd: GLUC
  lbtest: Glucose
  lbstresn: 88.5
  lbstnrlo: 60
  lbstnrhi: 115
  visitnum: 1
  visit: SCREENING
  visitdy: 14
  lbnrind: NORMAL
- !ruby/object:SdtmLb
  studyid: ABC1
  usubjid: ABC1-102-06
  lbseq: 171
  lbtestcd: ALB
  lbtest: Albumin
  lbstresn: 4.4
  lbstnrlo: 3.4
  lbstnrhi: 4.7
  visitnum: 2
  visit: BASELINE
  visitdy: 14
  lbnrind: NORMAL
- !ruby/object:SdtmLb
  studyid: ABC1
  usubjid: ABC1-102-06
  lbseq: 171
  lbtestcd: BUN
  lbtest: Blood Urea Nitrogen (BUN)
  lbstresn: 10.1
  lbstnrlo: 8
  lbstnrhi: 20
  visitnum: 2
  visit: BASELINE
  visitdy: 14
  lbnrind: NORMAL
- !ruby/object:SdtmLb
  studyid: ABC1
  usubjid: ABC1-102-06
  lbseq: 171
  lbtestcd: CA
  lbtest: Calcium
  lbstresn: 9.76
  lbstnrlo: 8.5
  lbstnrhi: 10.5
  visitnum: 2
  visit: BASELINE
  visitdy: 14
  lbnrind: NORMAL
- !ruby/object:SdtmLb
  studyid: ABC1
  usubjid: ABC1-102-06
  lbseq: 171
  lbtestcd: GLUC
  lbtest: Glucose
  lbstresn: 95.5
  lbstnrlo: 60
  lbstnrhi: 115
  visitnum: 2
  visit: BASELINE
  visitdy: 14
  lbnrind: NORMAL
- !ruby/object:SdtmLb
  studyid: ABC1
  usubjid: ABC1-102-06
  lbseq: 172
  lbtestcd: ALB
  lbtest: Albumin
  lbstresn: 3.9
  lbstnrlo: 3.4
  lbstnrhi: 4.7
  visitnum: 3
  visit: VISIT 2
  visitdy: 14
  lbnrind: NORMAL
- !ruby/object:SdtmLb
  studyid: ABC1
  usubjid: ABC1-102-06
  lbseq: 172
  lbtestcd: BUN
  lbtest: Blood Urea Nitrogen (BUN)
  lbstresn: 20.5
  lbstnrlo: 8
  lbstnrhi: 20
  visitnum: 3
  visit: VISIT 2
  visitdy: 14
  lbnrind: HIGH
- !ruby/object:SdtmLb
  studyid: ABC1
  usubjid: ABC1-102-06
  lbseq: 172
  lbtestcd: CA
  lbtest: Calcium
  lbstresn: 9.73
  lbstnrlo: 8.5
  lbstnrhi: 10.5
  visitnum: 3
  visit: VISIT 2
  visitdy: 14
  lbnrind: NORMAL
- !ruby/object:SdtmLb
  studyid: ABC1
  usubjid: ABC1-102-06
  lbseq: 172
  lbtestcd: GLUC
  lbtest: Glucose
  lbstresn: 107.0
  lbstnrlo: 60
  lbstnrhi: 115
  visitnum: 3
  visit: VISIT 2
  visitdy: 14
  lbnrind: NORMAL
- !ruby/object:SdtmLb
  studyid: ABC1
  usubjid: ABC1-102-06
  lbseq: 173
  lbtestcd: ALB
  lbtest: Albumin
  lbstresn: 3.9
  lbstnrlo: 3.4
  lbstnrhi: 4.7
  visitnum: 4
  visit: VISIT 3
  visitdy: 14
  lbnrind: NORMAL
- !ruby/object:SdtmLb
  studyid: ABC1
  usubjid: ABC1-102-06
  lbseq: 173
  lbtestcd: BUN
  lbtest: Blood Urea Nitrogen (BUN)
  lbstresn: 15.4
  lbstnrlo: 8
  lbstnrhi: 20
  visitnum: 4
  visit: VISIT 3
  visitdy: 14
  lbnrind: NORMAL
- !ruby/object:SdtmLb
  studyid: ABC1
  usubjid: ABC1-102-06
  lbseq: 173
  lbtestcd: CA
  lbtest: Calcium
  lbstresn: 9.81
  lbstnrlo: 8.5
  lbstnrhi: 10.5
  visitnum: 4
  visit: VISIT 3
  visitdy: 14
  lbnrind: NORMAL
- !ruby/object:SdtmLb
  studyid: ABC1
  usubjid: ABC1-102-06
  lbseq: 173
  lbtestcd: GLUC
  lbtest: Glucose
  lbstresn: 88.7
  lbstnrlo: 60
  lbstnrhi: 115
  visitnum: 4
  visit: VISIT 3
  visitdy: 14
  lbnrind: NORMAL
- !ruby/object:SdtmLb
  studyid: ABC1
  usubjid: ABC1-102-06
  lbseq: 174
  lbtestcd: ALB
  lbtest: Albumin
  lbstresn: 4.0
  lbstnrlo: 3.4
  lbstnrhi: 4.7
  visitnum: 5
  visit: VISIT 4
  visitdy: 14
  lbnrind: NORMAL
- !ruby/object:SdtmLb
  studyid: ABC1
  usubjid: ABC1-102-06
  lbseq: 174
  lbtestcd: BUN
  lbtest: Blood Urea Nitrogen (BUN)
  lbstresn: 15.8
  lbstnrlo: 8
  lbstnrhi: 20
  visitnum: 5
  visit: VISIT 4
  visitdy: 14
  lbnrind: NORMAL
- !ruby/object:SdtmLb
  studyid: ABC1
  usubjid: ABC1-102-06
  lbseq: 174
  lbtestcd: CA
  lbtest: Calcium
  lbstresn: 9.62
  lbstnrlo: 8.5
  lbstnrhi: 10.5
  visitnum: 5
  visit: VISIT 4
  visitdy: 14
  lbnrind: NORMAL
- !ruby/object:SdtmLb
  studyid: ABC1
  usubjid: ABC1-102-06
  lbseq: 174
  lbtestcd: GLUC
  lbtest: Glucose
  lbstresn: 78.8
  lbstnrlo: 60
  lbstnrhi: 115
  visitnum: 5
  visit: VISIT 4
  visitdy: 14
  lbnrind: NORMAL
- !ruby/object:SdtmLb
  studyid: ABC1
  usubjid: ABC1-102-06
  lbseq: 175
  lbtestcd: ALB
  lbtest: Albumin
  lbstresn: 4.2
  lbstnrlo: 3.4
  lbstnrhi: 4.7
  visitnum: 6
  visit: VISIT 5
  visitdy: 14
  lbnrind: NORMAL
- !ruby/object:SdtmLb
  studyid: ABC1
  usubjid: ABC1-102-06
  lbseq: 175
  lbtestcd: BUN
  lbtest: Blood Urea Nitrogen (BUN)
  lbstresn: 18.7
  lbstnrlo: 8
  lbstnrhi: 20
  visitnum: 6
  visit: VISIT 5
  visitdy: 14
  lbnrind: NORMAL
- !ruby/object:SdtmLb
  studyid: ABC1
  usubjid: ABC1-102-06
  lbseq: 175
  lbtestcd: CA
  lbtest: Calcium
  lbstresn: 9.18
  lbstnrlo: 8.5
  lbstnrhi: 10.5
  visitnum: 6
  visit: VISIT 5
  visitdy: 14
  lbnrind: NORMAL
- !ruby/object:SdtmLb
  studyid: ABC1
  usubjid: ABC1-102-06
  lbseq: 175
  lbtestcd: GLUC
  lbtest: Glucose
  lbstresn: 82.4
  lbstnrlo: 60
  lbstnrhi: 115
  visitnum: 6
  visit: VISIT 5
  visitdy: 14
  lbnrind: NORMAL
- !ruby/object:SdtmLb
  studyid: ABC1
  usubjid: ABC1-102-06
  lbseq: 176
  lbtestcd: ALB
  lbtest: Albumin
  lbstresn: 3.8
  lbstnrlo: 3.4
  lbstnrhi: 4.7
  visitnum: 7
  visit: VISIT 6
  visitdy: 14
  lbnrind: NORMAL
- !ruby/object:SdtmLb
  studyid: ABC1
  usubjid: ABC1-102-06
  lbseq: 176
  lbtestcd: BUN
  lbtest: Blood Urea Nitrogen (BUN)
  lbstresn: 10.3
  lbstnrlo: 8
  lbstnrhi: 20
  visitnum: 7
  visit: VISIT 6
  visitdy: 14
  lbnrind: NORMAL
- !ruby/object:SdtmLb
  studyid: ABC1
  usubjid: ABC1-102-06
  lbseq: 176
  lbtestcd: CA
  lbtest: Calcium
  lbstresn: 9.06
  lbstnrlo: 8.5
  lbstnrhi: 10.5
  visitnum: 7
  visit: VISIT 6
  visitdy: 14
  lbnrind: NORMAL
- !ruby/object:SdtmLb
  studyid: ABC1
  usubjid: ABC1-102-06
  lbseq: 176
  lbtestcd: GLUC
  lbtest: Glucose
  lbstresn: 77.0
  lbstnrlo: 60
  lbstnrhi: 115
  visitnum: 7
  visit: VISIT 6
  visitdy: 14
  lbnrind: NORMAL
- !ruby/object:SdtmLb
  studyid: ABC1
  usubjid: ABC1-102-07
  lbseq: 177
  lbtestcd: ALB
  lbtest: Albumin
  lbstresn: 4.0
  lbstnrlo: 3.4
  lbstnrhi: 4.7
  visitnum: 1
  visit: SCREENING
  visitdy: 14
  lbnrind: NORMAL
- !ruby/object:SdtmLb
  studyid: ABC1
  usubjid: ABC1-102-07
  lbseq: 177
  lbtestcd: BUN
  lbtest: Blood Urea Nitrogen (BUN)
  lbstresn: 11.8
  lbstnrlo: 8
  lbstnrhi: 20
  visitnum: 1
  visit: SCREENING
  visitdy: 14
  lbnrind: NORMAL
- !ruby/object:SdtmLb
  studyid: ABC1
  usubjid: ABC1-102-07
  lbseq: 177
  lbtestcd: CA
  lbtest: Calcium
  lbstresn: 9.42
  lbstnrlo: 8.5
  lbstnrhi: 10.5
  visitnum: 1
  visit: SCREENING
  visitdy: 14
  lbnrind: NORMAL
- !ruby/object:SdtmLb
  studyid: ABC1
  usubjid: ABC1-102-07
  lbseq: 177
  lbtestcd: GLUC
  lbtest: Glucose
  lbstresn: 103.9
  lbstnrlo: 60
  lbstnrhi: 115
  visitnum: 1
  visit: SCREENING
  visitdy: 14
  lbnrind: NORMAL
- !ruby/object:SdtmLb
  studyid: ABC1
  usubjid: ABC1-101-05
  lbseq: 178
  lbtestcd: ALB
  lbtest: Albumin
  lbstresn: 4.2
  lbstnrlo: 3.4
  lbstnrhi: 4.7
  visitnum: 1
  visit: SCREENING
  visitdy: 14
  lbnrind: NORMAL
- !ruby/object:SdtmLb
  studyid: ABC1
  usubjid: ABC1-101-05
  lbseq: 178
  lbtestcd: BUN
  lbtest: Blood Urea Nitrogen (BUN)
  lbstresn: 14.7
  lbstnrlo: 8
  lbstnrhi: 20
  visitnum: 1
  visit: SCREENING
  visitdy: 14
  lbnrind: NORMAL
- !ruby/object:SdtmLb
  studyid: ABC1
  usubjid: ABC1-101-05
  lbseq: 178
  lbtestcd: CA
  lbtest: Calcium
  lbstresn: 9.35
  lbstnrlo: 8.5
  lbstnrhi: 10.5
  visitnum: 1
  visit: SCREENING
  visitdy: 14
  lbnrind: NORMAL
- !ruby/object:SdtmLb
  studyid: ABC1
  usubjid: ABC1-101-05
  lbseq: 178
  lbtestcd: GLUC
  lbtest: Glucose
  lbstresn: 84.9
  lbstnrlo: 60
  lbstnrhi: 115
  visitnum: 1
  visit: SCREENING
  visitdy: 14
  lbnrind: NORMAL
- !ruby/object:SdtmLb
  studyid: ABC1
  usubjid: ABC1-101-05
  lbseq: 179
  lbtestcd: ALB
  lbtest: Albumin
  lbstresn: 4.2
  lbstnrlo: 3.4
  lbstnrhi: 4.7
  visitnum: 2
  visit: BASELINE
  visitdy: 14
  lbnrind: NORMAL
- !ruby/object:SdtmLb
  studyid: ABC1
  usubjid: ABC1-101-05
  lbseq: 179
  lbtestcd: BUN
  lbtest: Blood Urea Nitrogen (BUN)
  lbstresn: 12.4
  lbstnrlo: 8
  lbstnrhi: 20
  visitnum: 2
  visit: BASELINE
  visitdy: 14
  lbnrind: NORMAL
- !ruby/object:SdtmLb
  studyid: ABC1
  usubjid: ABC1-101-05
  lbseq: 179
  lbtestcd: CA
  lbtest: Calcium
  lbstresn: 10.43
  lbstnrlo: 8.5
  lbstnrhi: 10.5
  visitnum: 2
  visit: BASELINE
  visitdy: 14
  lbnrind: NORMAL
- !ruby/object:SdtmLb
  studyid: ABC1
  usubjid: ABC1-101-05
  lbseq: 179
  lbtestcd: GLUC
  lbtest: Glucose
  lbstresn: 108.6
  lbstnrlo: 60
  lbstnrhi: 115
  visitnum: 2
  visit: BASELINE
  visitdy: 14
  lbnrind: NORMAL
- !ruby/object:SdtmLb
  studyid: ABC1
  usubjid: ABC1-101-05
  lbseq: 180
  lbtestcd: ALB
  lbtest: Albumin
  lbstresn: 4.0
  lbstnrlo: 3.4
  lbstnrhi: 4.7
  visitnum: 3
  visit: VISIT 2
  visitdy: 14
  lbnrind: NORMAL
- !ruby/object:SdtmLb
  studyid: ABC1
  usubjid: ABC1-101-05
  lbseq: 180
  lbtestcd: BUN
  lbtest: Blood Urea Nitrogen (BUN)
  lbstresn: 12.1
  lbstnrlo: 8
  lbstnrhi: 20
  visitnum: 3
  visit: VISIT 2
  visitdy: 14
  lbnrind: NORMAL
- !ruby/object:SdtmLb
  studyid: ABC1
  usubjid: ABC1-101-05
  lbseq: 180
  lbtestcd: CA
  lbtest: Calcium
  lbstresn: 10.59
  lbstnrlo: 8.5
  lbstnrhi: 10.5
  visitnum: 3
  visit: VISIT 2
  visitdy: 14
  lbnrind: HIGH
- !ruby/object:SdtmLb
  studyid: ABC1
  usubjid: ABC1-101-05
  lbseq: 180
  lbtestcd: GLUC
  lbtest: Glucose
  lbstresn: 99.1
  lbstnrlo: 60
  lbstnrhi: 115
  visitnum: 3
  visit: VISIT 2
  visitdy: 14
  lbnrind: NORMAL
- !ruby/object:SdtmLb
  studyid: ABC1
  usubjid: ABC1-101-05
  lbseq: 181
  lbtestcd: ALB
  lbtest: Albumin
  lbstresn: 4.1
  lbstnrlo: 3.4
  lbstnrhi: 4.7
  visitnum: 4
  visit: VISIT 3
  visitdy: 14
  lbnrind: NORMAL
- !ruby/object:SdtmLb
  studyid: ABC1
  usubjid: ABC1-101-05
  lbseq: 181
  lbtestcd: BUN
  lbtest: Blood Urea Nitrogen (BUN)
  lbstresn: 10.5
  lbstnrlo: 8
  lbstnrhi: 20
  visitnum: 4
  visit: VISIT 3
  visitdy: 14
  lbnrind: NORMAL
- !ruby/object:SdtmLb
  studyid: ABC1
  usubjid: ABC1-101-05
  lbseq: 181
  lbtestcd: CA
  lbtest: Calcium
  lbstresn: 9.25
  lbstnrlo: 8.5
  lbstnrhi: 10.5
  visitnum: 4
  visit: VISIT 3
  visitdy: 14
  lbnrind: NORMAL
- !ruby/object:SdtmLb
  studyid: ABC1
  usubjid: ABC1-101-05
  lbseq: 181
  lbtestcd: GLUC
  lbtest: Glucose
  lbstresn: 90.4
  lbstnrlo: 60
  lbstnrhi: 115
  visitnum: 4
  visit: VISIT 3
  visitdy: 14
  lbnrind: NORMAL
- !ruby/object:SdtmLb
  studyid: ABC1
  usubjid: ABC1-101-06
  lbseq: 182
  lbtestcd: ALB
  lbtest: Albumin
  lbstresn: 3.4
  lbstnrlo: 3.4
  lbstnrhi: 4.7
  visitnum: 1
  visit: SCREENING
  visitdy: 14
  lbnrind: NORMAL
- !ruby/object:SdtmLb
  studyid: ABC1
  usubjid: ABC1-101-06
  lbseq: 182
  lbtestcd: BUN
  lbtest: Blood Urea Nitrogen (BUN)
  lbstresn: 11.5
  lbstnrlo: 8
  lbstnrhi: 20
  visitnum: 1
  visit: SCREENING
  visitdy: 14
  lbnrind: NORMAL
- !ruby/object:SdtmLb
  studyid: ABC1
  usubjid: ABC1-101-06
  lbseq: 182
  lbtestcd: CA
  lbtest: Calcium
  lbstresn: 9.57
  lbstnrlo: 8.5
  lbstnrhi: 10.5
  visitnum: 1
  visit: SCREENING
  visitdy: 14
  lbnrind: NORMAL
- !ruby/object:SdtmLb
  studyid: ABC1
  usubjid: ABC1-101-06
  lbseq: 182
  lbtestcd: GLUC
  lbtest: Glucose
  lbstresn: 82.6
  lbstnrlo: 60
  lbstnrhi: 115
  visitnum: 1
  visit: SCREENING
  visitdy: 14
  lbnrind: NORMAL
- !ruby/object:SdtmLb
  studyid: ABC1
  usubjid: ABC1-101-06
  lbseq: 183
  lbtestcd: ALB
  lbtest: Albumin
  lbstresn: 4.2
  lbstnrlo: 3.4
  lbstnrhi: 4.7
  visitnum: 2
  visit: BASELINE
  visitdy: 14
  lbnrind: NORMAL
- !ruby/object:SdtmLb
  studyid: ABC1
  usubjid: ABC1-101-06
  lbseq: 183
  lbtestcd: BUN
  lbtest: Blood Urea Nitrogen (BUN)
  lbstresn: 15.4
  lbstnrlo: 8
  lbstnrhi: 20
  visitnum: 2
  visit: BASELINE
  visitdy: 14
  lbnrind: NORMAL
- !ruby/object:SdtmLb
  studyid: ABC1
  usubjid: ABC1-101-06
  lbseq: 183
  lbtestcd: CA
  lbtest: Calcium
  lbstresn: 8.39
  lbstnrlo: 8.5
  lbstnrhi: 10.5
  visitnum: 2
  visit: BASELINE
  visitdy: 14
  lbnrind: LOW
- !ruby/object:SdtmLb
  studyid: ABC1
  usubjid: ABC1-101-06
  lbseq: 183
  lbtestcd: GLUC
  lbtest: Glucose
  lbstresn: 84.5
  lbstnrlo: 60
  lbstnrhi: 115
  visitnum: 2
  visit: BASELINE
  visitdy: 14
  lbnrind: NORMAL
- !ruby/object:SdtmLb
  studyid: ABC1
  usubjid: ABC1-101-06
  lbseq: 184
  lbtestcd: ALB
  lbtest: Albumin
  lbstresn: 3.8
  lbstnrlo: 3.4
  lbstnrhi: 4.7
  visitnum: 3
  visit: VISIT 2
  visitdy: 14
  lbnrind: NORMAL
- !ruby/object:SdtmLb
  studyid: ABC1
  usubjid: ABC1-101-06
  lbseq: 184
  lbtestcd: BUN
  lbtest: Blood Urea Nitrogen (BUN)
  lbstresn: 13.5
  lbstnrlo: 8
  lbstnrhi: 20
  visitnum: 3
  visit: VISIT 2
  visitdy: 14
  lbnrind: NORMAL
- !ruby/object:SdtmLb
  studyid: ABC1
  usubjid: ABC1-101-06
  lbseq: 184
  lbtestcd: CA
  lbtest: Calcium
  lbstresn: 9.54
  lbstnrlo: 8.5
  lbstnrhi: 10.5
  visitnum: 3
  visit: VISIT 2
  visitdy: 14
  lbnrind: NORMAL
- !ruby/object:SdtmLb
  studyid: ABC1
  usubjid: ABC1-101-06
  lbseq: 184
  lbtestcd: GLUC
  lbtest: Glucose
  lbstresn: 99.4
  lbstnrlo: 60
  lbstnrhi: 115
  visitnum: 3
  visit: VISIT 2
  visitdy: 14
  lbnrind: NORMAL
- !ruby/object:SdtmLb
  studyid: ABC1
  usubjid: ABC1-101-06
  lbseq: 185
  lbtestcd: ALB
  lbtest: Albumin
  lbstresn: 4.4
  lbstnrlo: 3.4
  lbstnrhi: 4.7
  visitnum: 4
  visit: VISIT 3
  visitdy: 14
  lbnrind: NORMAL
- !ruby/object:SdtmLb
  studyid: ABC1
  usubjid: ABC1-101-06
  lbseq: 185
  lbtestcd: BUN
  lbtest: Blood Urea Nitrogen (BUN)
  lbstresn: 15.9
  lbstnrlo: 8
  lbstnrhi: 20
  visitnum: 4
  visit: VISIT 3
  visitdy: 14
  lbnrind: NORMAL
- !ruby/object:SdtmLb
  studyid: ABC1
  usubjid: ABC1-101-06
  lbseq: 185
  lbtestcd: CA
  lbtest: Calcium
  lbstresn: 8.92
  lbstnrlo: 8.5
  lbstnrhi: 10.5
  visitnum: 4
  visit: VISIT 3
  visitdy: 14
  lbnrind: NORMAL
- !ruby/object:SdtmLb
  studyid: ABC1
  usubjid: ABC1-101-06
  lbseq: 185
  lbtestcd: GLUC
  lbtest: Glucose
  lbstresn: 90.2
  lbstnrlo: 60
  lbstnrhi: 115
  visitnum: 4
  visit: VISIT 3
  visitdy: 14
  lbnrind: NORMAL
- !ruby/object:SdtmLb
  studyid: ABC1
  usubjid: ABC1-101-06
  lbseq: 186
  lbtestcd: ALB
  lbtest: Albumin
  lbstresn: 4.0
  lbstnrlo: 3.4
  lbstnrhi: 4.7
  visitnum: 5
  visit: VISIT 4
  visitdy: 14
  lbnrind: NORMAL
- !ruby/object:SdtmLb
  studyid: ABC1
  usubjid: ABC1-101-06
  lbseq: 186
  lbtestcd: BUN
  lbtest: Blood Urea Nitrogen (BUN)
  lbstresn: 10.5
  lbstnrlo: 8
  lbstnrhi: 20
  visitnum: 5
  visit: VISIT 4
  visitdy: 14
  lbnrind: NORMAL
- !ruby/object:SdtmLb
  studyid: ABC1
  usubjid: ABC1-101-06
  lbseq: 186
  lbtestcd: CA
  lbtest: Calcium
  lbstresn: 9.3
  lbstnrlo: 8.5
  lbstnrhi: 10.5
  visitnum: 5
  visit: VISIT 4
  visitdy: 14
  lbnrind: NORMAL
- !ruby/object:SdtmLb
  studyid: ABC1
  usubjid: ABC1-101-06
  lbseq: 186
  lbtestcd: GLUC
  lbtest: Glucose
  lbstresn: 86.3
  lbstnrlo: 60
  lbstnrhi: 115
  visitnum: 5
  visit: VISIT 4
  visitdy: 14
  lbnrind: NORMAL
- !ruby/object:SdtmLb
  studyid: ABC1
  usubjid: ABC1-101-06
  lbseq: 187
  lbtestcd: ALB
  lbtest: Albumin
  lbstresn: 3.8
  lbstnrlo: 3.4
  lbstnrhi: 4.7
  visitnum: 6
  visit: VISIT 5
  visitdy: 14
  lbnrind: NORMAL
- !ruby/object:SdtmLb
  studyid: ABC1
  usubjid: ABC1-101-06
  lbseq: 187
  lbtestcd: BUN
  lbtest: Blood Urea Nitrogen (BUN)
  lbstresn: 9.3
  lbstnrlo: 8
  lbstnrhi: 20
  visitnum: 6
  visit: VISIT 5
  visitdy: 14
  lbnrind: NORMAL
- !ruby/object:SdtmLb
  studyid: ABC1
  usubjid: ABC1-101-06
  lbseq: 187
  lbtestcd: CA
  lbtest: Calcium
  lbstresn: 9.88
  lbstnrlo: 8.5
  lbstnrhi: 10.5
  visitnum: 6
  visit: VISIT 5
  visitdy: 14
  lbnrind: NORMAL
- !ruby/object:SdtmLb
  studyid: ABC1
  usubjid: ABC1-101-06
  lbseq: 187
  lbtestcd: GLUC
  lbtest: Glucose
  lbstresn: 90.4
  lbstnrlo: 60
  lbstnrhi: 115
  visitnum: 6
  visit: VISIT 5
  visitdy: 14
  lbnrind: NORMAL
- !ruby/object:SdtmLb
  studyid: ABC1
  usubjid: ABC1-103-04
  lbseq: 188
  lbtestcd: ALB
  lbtest: Albumin
  lbstresn: 4.1
  lbstnrlo: 3.4
  lbstnrhi: 4.7
  visitnum: 1
  visit: SCREENING
  visitdy: 14
  lbnrind: NORMAL
- !ruby/object:SdtmLb
  studyid: ABC1
  usubjid: ABC1-103-04
  lbseq: 188
  lbtestcd: BUN
  lbtest: Blood Urea Nitrogen (BUN)
  lbstresn: 19.3
  lbstnrlo: 8
  lbstnrhi: 20
  visitnum: 1
  visit: SCREENING
  visitdy: 14
  lbnrind: NORMAL
- !ruby/object:SdtmLb
  studyid: ABC1
  usubjid: ABC1-103-04
  lbseq: 188
  lbtestcd: CA
  lbtest: Calcium
  lbstresn: 8.91
  lbstnrlo: 8.5
  lbstnrhi: 10.5
  visitnum: 1
  visit: SCREENING
  visitdy: 14
  lbnrind: NORMAL
- !ruby/object:SdtmLb
  studyid: ABC1
  usubjid: ABC1-103-04
  lbseq: 188
  lbtestcd: GLUC
  lbtest: Glucose
  lbstresn: 76.7
  lbstnrlo: 60
  lbstnrhi: 115
  visitnum: 1
  visit: SCREENING
  visitdy: 14
  lbnrind: NORMAL
- !ruby/object:SdtmLb
  studyid: ABC1
  usubjid: ABC1-201-08
  lbseq: 189
  lbtestcd: ALB
  lbtest: Albumin
  lbstresn: 3.7
  lbstnrlo: 3.4
  lbstnrhi: 4.7
  visitnum: 1
  visit: SCREENING
  visitdy: 14
  lbnrind: NORMAL
- !ruby/object:SdtmLb
  studyid: ABC1
  usubjid: ABC1-201-08
  lbseq: 189
  lbtestcd: BUN
  lbtest: Blood Urea Nitrogen (BUN)
  lbstresn: 12.0
  lbstnrlo: 8
  lbstnrhi: 20
  visitnum: 1
  visit: SCREENING
  visitdy: 14
  lbnrind: NORMAL
- !ruby/object:SdtmLb
  studyid: ABC1
  usubjid: ABC1-201-08
  lbseq: 189
  lbtestcd: CA
  lbtest: Calcium
  lbstresn: 9.99
  lbstnrlo: 8.5
  lbstnrhi: 10.5
  visitnum: 1
  visit: SCREENING
  visitdy: 14
  lbnrind: NORMAL
- !ruby/object:SdtmLb
  studyid: ABC1
  usubjid: ABC1-201-08
  lbseq: 189
  lbtestcd: GLUC
  lbtest: Glucose
  lbstresn: 85.2
  lbstnrlo: 60
  lbstnrhi: 115
  visitnum: 1
  visit: SCREENING
  visitdy: 14
  lbnrind: NORMAL
- !ruby/object:SdtmLb
  studyid: ABC1
  usubjid: ABC1-201-08
  lbseq: 190
  lbtestcd: ALB
  lbtest: Albumin
  lbstresn: 3.9
  lbstnrlo: 3.4
  lbstnrhi: 4.7
  visitnum: 2
  visit: BASELINE
  visitdy: 14
  lbnrind: NORMAL
- !ruby/object:SdtmLb
  studyid: ABC1
  usubjid: ABC1-201-08
  lbseq: 190
  lbtestcd: BUN
  lbtest: Blood Urea Nitrogen (BUN)
  lbstresn: 17.9
  lbstnrlo: 8
  lbstnrhi: 20
  visitnum: 2
  visit: BASELINE
  visitdy: 14
  lbnrind: NORMAL
- !ruby/object:SdtmLb
  studyid: ABC1
  usubjid: ABC1-201-08
  lbseq: 190
  lbtestcd: CA
  lbtest: Calcium
  lbstresn: 9.62
  lbstnrlo: 8.5
  lbstnrhi: 10.5
  visitnum: 2
  visit: BASELINE
  visitdy: 14
  lbnrind: NORMAL
- !ruby/object:SdtmLb
  studyid: ABC1
  usubjid: ABC1-201-08
  lbseq: 190
  lbtestcd: GLUC
  lbtest: Glucose
  lbstresn: 81.8
  lbstnrlo: 60
  lbstnrhi: 115
  visitnum: 2
  visit: BASELINE
  visitdy: 14
  lbnrind: NORMAL
- !ruby/object:SdtmLb
  studyid: ABC1
  usubjid: ABC1-201-08
  lbseq: 191
  lbtestcd: ALB
  lbtest: Albumin
  lbstresn: 3.6
  lbstnrlo: 3.4
  lbstnrhi: 4.7
  visitnum: 3
  visit: VISIT 2
  visitdy: 14
  lbnrind: NORMAL
- !ruby/object:SdtmLb
  studyid: ABC1
  usubjid: ABC1-201-08
  lbseq: 191
  lbtestcd: BUN
  lbtest: Blood Urea Nitrogen (BUN)
  lbstresn: 12.0
  lbstnrlo: 8
  lbstnrhi: 20
  visitnum: 3
  visit: VISIT 2
  visitdy: 14
  lbnrind: NORMAL
- !ruby/object:SdtmLb
  studyid: ABC1
  usubjid: ABC1-201-08
  lbseq: 191
  lbtestcd: CA
  lbtest: Calcium
  lbstresn: 8.82
  lbstnrlo: 8.5
  lbstnrhi: 10.5
  visitnum: 3
  visit: VISIT 2
  visitdy: 14
  lbnrind: NORMAL
- !ruby/object:SdtmLb
  studyid: ABC1
  usubjid: ABC1-201-08
  lbseq: 191
  lbtestcd: GLUC
  lbtest: Glucose
  lbstresn: 83.8
  lbstnrlo: 60
  lbstnrhi: 115
  visitnum: 3
  visit: VISIT 2
  visitdy: 14
  lbnrind: NORMAL
- !ruby/object:SdtmLb
  studyid: ABC1
  usubjid: ABC1-201-08
  lbseq: 192
  lbtestcd: ALB
  lbtest: Albumin
  lbstresn: 4.4
  lbstnrlo: 3.4
  lbstnrhi: 4.7
  visitnum: 4
  visit: VISIT 3
  visitdy: 14
  lbnrind: NORMAL
- !ruby/object:SdtmLb
  studyid: ABC1
  usubjid: ABC1-201-08
  lbseq: 192
  lbtestcd: BUN
  lbtest: Blood Urea Nitrogen (BUN)
  lbstresn: 13.7
  lbstnrlo: 8
  lbstnrhi: 20
  visitnum: 4
  visit: VISIT 3
  visitdy: 14
  lbnrind: NORMAL
- !ruby/object:SdtmLb
  studyid: ABC1
  usubjid: ABC1-201-08
  lbseq: 192
  lbtestcd: CA
  lbtest: Calcium
  lbstresn: 8.91
  lbstnrlo: 8.5
  lbstnrhi: 10.5
  visitnum: 4
  visit: VISIT 3
  visitdy: 14
  lbnrind: NORMAL
- !ruby/object:SdtmLb
  studyid: ABC1
  usubjid: ABC1-201-08
  lbseq: 192
  lbtestcd: GLUC
  lbtest: Glucose
  lbstresn: 96.1
  lbstnrlo: 60
  lbstnrhi: 115
  visitnum: 4
  visit: VISIT 3
  visitdy: 14
  lbnrind: NORMAL
- !ruby/object:SdtmLb
  studyid: ABC1
  usubjid: ABC1-201-08
  lbseq: 193
  lbtestcd: ALB
  lbtest: Albumin
  lbstresn: 4.5
  lbstnrlo: 3.4
  lbstnrhi: 4.7
  visitnum: 5
  visit: VISIT 4
  visitdy: 14
  lbnrind: NORMAL
- !ruby/object:SdtmLb
  studyid: ABC1
  usubjid: ABC1-201-08
  lbseq: 193
  lbtestcd: BUN
  lbtest: Blood Urea Nitrogen (BUN)
  lbstresn: 12.8
  lbstnrlo: 8
  lbstnrhi: 20
  visitnum: 5
  visit: VISIT 4
  visitdy: 14
  lbnrind: NORMAL
- !ruby/object:SdtmLb
  studyid: ABC1
  usubjid: ABC1-201-08
  lbseq: 193
  lbtestcd: CA
  lbtest: Calcium
  lbstresn: 8.7
  lbstnrlo: 8.5
  lbstnrhi: 10.5
  visitnum: 5
  visit: VISIT 4
  visitdy: 14
  lbnrind: NORMAL
- !ruby/object:SdtmLb
  studyid: ABC1
  usubjid: ABC1-201-08
  lbseq: 193
  lbtestcd: GLUC
  lbtest: Glucose
  lbstresn: 76.6
  lbstnrlo: 60
  lbstnrhi: 115
  visitnum: 5
  visit: VISIT 4
  visitdy: 14
  lbnrind: NORMAL
- !ruby/object:SdtmLb
  studyid: ABC1
  usubjid: ABC1-201-08
  lbseq: 194
  lbtestcd: ALB
  lbtest: Albumin
  lbstresn: 3.3
  lbstnrlo: 3.4
  lbstnrhi: 4.7
  visitnum: 6
  visit: VISIT 5
  visitdy: 14
  lbnrind: LOW
- !ruby/object:SdtmLb
  studyid: ABC1
  usubjid: ABC1-201-08
  lbseq: 194
  lbtestcd: BUN
  lbtest: Blood Urea Nitrogen (BUN)
  lbstresn: 17.5
  lbstnrlo: 8
  lbstnrhi: 20
  visitnum: 6
  visit: VISIT 5
  visitdy: 14
  lbnrind: NORMAL
- !ruby/object:SdtmLb
  studyid: ABC1
  usubjid: ABC1-201-08
  lbseq: 194
  lbtestcd: CA
  lbtest: Calcium
  lbstresn: 9.59
  lbstnrlo: 8.5
  lbstnrhi: 10.5
  visitnum: 6
  visit: VISIT 5
  visitdy: 14
  lbnrind: NORMAL
- !ruby/object:SdtmLb
  studyid: ABC1
  usubjid: ABC1-201-08
  lbseq: 194
  lbtestcd: GLUC
  lbtest: Glucose
  lbstresn: 93.7
  lbstnrlo: 60
  lbstnrhi: 115
  visitnum: 6
  visit: VISIT 5
  visitdy: 14
  lbnrind: NORMAL
- !ruby/object:SdtmLb
  studyid: ABC1
  usubjid: ABC1-201-08
  lbseq: 195
  lbtestcd: ALB
  lbtest: Albumin
  lbstresn: 4.1
  lbstnrlo: 3.4
  lbstnrhi: 4.7
  visitnum: 7
  visit: VISIT 6
  visitdy: 14
  lbnrind: NORMAL
- !ruby/object:SdtmLb
  studyid: ABC1
  usubjid: ABC1-201-08
  lbseq: 195
  lbtestcd: BUN
  lbtest: Blood Urea Nitrogen (BUN)
  lbstresn: 10.5
  lbstnrlo: 8
  lbstnrhi: 20
  visitnum: 7
  visit: VISIT 6
  visitdy: 14
  lbnrind: NORMAL
- !ruby/object:SdtmLb
  studyid: ABC1
  usubjid: ABC1-201-08
  lbseq: 195
  lbtestcd: CA
  lbtest: Calcium
  lbstresn: 10.2
  lbstnrlo: 8.5
  lbstnrhi: 10.5
  visitnum: 7
  visit: VISIT 6
  visitdy: 14
  lbnrind: NORMAL
- !ruby/object:SdtmLb
  studyid: ABC1
  usubjid: ABC1-201-08
  lbseq: 195
  lbtestcd: GLUC
  lbtest: Glucose
  lbstresn: 81.8
  lbstnrlo: 60
  lbstnrhi: 115
  visitnum: 7
  visit: VISIT 6
  visitdy: 14
  lbnrind: NORMAL
- !ruby/object:SdtmLb
  studyid: ABC1
  usubjid: ABC1-202-08
  lbseq: 196
  lbtestcd: ALB
  lbtest: Albumin
  lbstresn: 3.9
  lbstnrlo: 3.4
  lbstnrhi: 4.7
  visitnum: 1
  visit: SCREENING
  visitdy: 14
  lbnrind: NORMAL
- !ruby/object:SdtmLb
  studyid: ABC1
  usubjid: ABC1-202-08
  lbseq: 196
  lbtestcd: BUN
  lbtest: Blood Urea Nitrogen (BUN)
  lbstresn: 18.8
  lbstnrlo: 8
  lbstnrhi: 20
  visitnum: 1
  visit: SCREENING
  visitdy: 14
  lbnrind: NORMAL
- !ruby/object:SdtmLb
  studyid: ABC1
  usubjid: ABC1-202-08
  lbseq: 196
  lbtestcd: CA
  lbtest: Calcium
  lbstresn: 8.99
  lbstnrlo: 8.5
  lbstnrhi: 10.5
  visitnum: 1
  visit: SCREENING
  visitdy: 14
  lbnrind: NORMAL
- !ruby/object:SdtmLb
  studyid: ABC1
  usubjid: ABC1-202-08
  lbseq: 196
  lbtestcd: GLUC
  lbtest: Glucose
  lbstresn: 90.6
  lbstnrlo: 60
  lbstnrhi: 115
  visitnum: 1
  visit: SCREENING
  visitdy: 14
  lbnrind: NORMAL
- !ruby/object:SdtmLb
  studyid: ABC1
  usubjid: ABC1-202-08
  lbseq: 197
  lbtestcd: ALB
  lbtest: Albumin
  lbstresn: 4.2
  lbstnrlo: 3.4
  lbstnrhi: 4.7
  visitnum: 2
  visit: BASELINE
  visitdy: 14
  lbnrind: NORMAL
- !ruby/object:SdtmLb
  studyid: ABC1
  usubjid: ABC1-202-08
  lbseq: 197
  lbtestcd: BUN
  lbtest: Blood Urea Nitrogen (BUN)
  lbstresn: 7.8
  lbstnrlo: 8
  lbstnrhi: 20
  visitnum: 2
  visit: BASELINE
  visitdy: 14
  lbnrind: LOW
- !ruby/object:SdtmLb
  studyid: ABC1
  usubjid: ABC1-202-08
  lbseq: 197
  lbtestcd: CA
  lbtest: Calcium
  lbstresn: 9.4
  lbstnrlo: 8.5
  lbstnrhi: 10.5
  visitnum: 2
  visit: BASELINE
  visitdy: 14
  lbnrind: NORMAL
- !ruby/object:SdtmLb
  studyid: ABC1
  usubjid: ABC1-202-08
  lbseq: 197
  lbtestcd: GLUC
  lbtest: Glucose
  lbstresn: 87.5
  lbstnrlo: 60
  lbstnrhi: 115
  visitnum: 2
  visit: BASELINE
  visitdy: 14
  lbnrind: NORMAL
- !ruby/object:SdtmLb
  studyid: ABC1
  usubjid: ABC1-202-08
  lbseq: 198
  lbtestcd: ALB
  lbtest: Albumin
  lbstresn: 4.3
  lbstnrlo: 3.4
  lbstnrhi: 4.7
  visitnum: 3
  visit: VISIT 2
  visitdy: 14
  lbnrind: NORMAL
- !ruby/object:SdtmLb
  studyid: ABC1
  usubjid: ABC1-202-08
  lbseq: 198
  lbtestcd: BUN
  lbtest: Blood Urea Nitrogen (BUN)
  lbstresn: 8.8
  lbstnrlo: 8
  lbstnrhi: 20
  visitnum: 3
  visit: VISIT 2
  visitdy: 14
  lbnrind: NORMAL
- !ruby/object:SdtmLb
  studyid: ABC1
  usubjid: ABC1-202-08
  lbseq: 198
  lbtestcd: CA
  lbtest: Calcium
  lbstresn: 9.42
  lbstnrlo: 8.5
  lbstnrhi: 10.5
  visitnum: 3
  visit: VISIT 2
  visitdy: 14
  lbnrind: NORMAL
- !ruby/object:SdtmLb
  studyid: ABC1
  usubjid: ABC1-202-08
  lbseq: 198
  lbtestcd: GLUC
  lbtest: Glucose
  lbstresn: 83.0
  lbstnrlo: 60
  lbstnrhi: 115
  visitnum: 3
  visit: VISIT 2
  visitdy: 14
  lbnrind: NORMAL
- !ruby/object:SdtmLb
  studyid: ABC1
  usubjid: ABC1-202-08
  lbseq: 199
  lbtestcd: ALB
  lbtest: Albumin
  lbstresn: 4.5
  lbstnrlo: 3.4
  lbstnrhi: 4.7
  visitnum: 4
  visit: VISIT 3
  visitdy: 14
  lbnrind: NORMAL
- !ruby/object:SdtmLb
  studyid: ABC1
  usubjid: ABC1-202-08
  lbseq: 199
  lbtestcd: BUN
  lbtest: Blood Urea Nitrogen (BUN)
  lbstresn: 9.3
  lbstnrlo: 8
  lbstnrhi: 20
  visitnum: 4
  visit: VISIT 3
  visitdy: 14
  lbnrind: NORMAL
- !ruby/object:SdtmLb
  studyid: ABC1
  usubjid: ABC1-202-08
  lbseq: 199
  lbtestcd: CA
  lbtest: Calcium
  lbstresn: 9.47
  lbstnrlo: 8.5
  lbstnrhi: 10.5
  visitnum: 4
  visit: VISIT 3
  visitdy: 14
  lbnrind: NORMAL
- !ruby/object:SdtmLb
  studyid: ABC1
  usubjid: ABC1-202-08
  lbseq: 199
  lbtestcd: GLUC
  lbtest: Glucose
  lbstresn: 69.9
  lbstnrlo: 60
  lbstnrhi: 115
  visitnum: 4
  visit: VISIT 3
  visitdy: 14
  lbnrind: NORMAL
- !ruby/object:SdtmLb
  studyid: ABC1
  usubjid: ABC1-202-08
  lbseq: 200
  lbtestcd: ALB
  lbtest: Albumin
  lbstresn: 3.5
  lbstnrlo: 3.4
  lbstnrhi: 4.7
  visitnum: 5
  visit: VISIT 4
  visitdy: 14
  lbnrind: NORMAL
- !ruby/object:SdtmLb
  studyid: ABC1
  usubjid: ABC1-202-08
  lbseq: 200
  lbtestcd: BUN
  lbtest: Blood Urea Nitrogen (BUN)
  lbstresn: 17.5
  lbstnrlo: 8
  lbstnrhi: 20
  visitnum: 5
  visit: VISIT 4
  visitdy: 14
  lbnrind: NORMAL
- !ruby/object:SdtmLb
  studyid: ABC1
  usubjid: ABC1-202-08
  lbseq: 200
  lbtestcd: CA
  lbtest: Calcium
  lbstresn: 9.31
  lbstnrlo: 8.5
  lbstnrhi: 10.5
  visitnum: 5
  visit: VISIT 4
  visitdy: 14
  lbnrind: NORMAL
- !ruby/object:SdtmLb
  studyid: ABC1
  usubjid: ABC1-202-08
  lbseq: 200
  lbtestcd: GLUC
  lbtest: Glucose
  lbstresn: 77.9
  lbstnrlo: 60
  lbstnrhi: 115
  visitnum: 5
  visit: VISIT 4
  visitdy: 14
  lbnrind: NORMAL
- !ruby/object:SdtmLb
  studyid: ABC1
  usubjid: ABC1-202-08
  lbseq: 201
  lbtestcd: ALB
  lbtest: Albumin
  lbstresn: 3.9
  lbstnrlo: 3.4
  lbstnrhi: 4.7
  visitnum: 6
  visit: VISIT 5
  visitdy: 14
  lbnrind: NORMAL
- !ruby/object:SdtmLb
  studyid: ABC1
  usubjid: ABC1-202-08
  lbseq: 201
  lbtestcd: BUN
  lbtest: Blood Urea Nitrogen (BUN)
  lbstresn: 11.2
  lbstnrlo: 8
  lbstnrhi: 20
  visitnum: 6
  visit: VISIT 5
  visitdy: 14
  lbnrind: NORMAL
- !ruby/object:SdtmLb
  studyid: ABC1
  usubjid: ABC1-202-08
  lbseq: 201
  lbtestcd: CA
  lbtest: Calcium
  lbstresn: 9.39
  lbstnrlo: 8.5
  lbstnrhi: 10.5
  visitnum: 6
  visit: VISIT 5
  visitdy: 14
  lbnrind: NORMAL
- !ruby/object:SdtmLb
  studyid: ABC1
  usubjid: ABC1-202-08
  lbseq: 201
  lbtestcd: GLUC
  lbtest: Glucose
  lbstresn: 96.3
  lbstnrlo: 60
  lbstnrhi: 115
  visitnum: 6
  visit: VISIT 5
  visitdy: 14
  lbnrind: NORMAL
- !ruby/object:SdtmLb
  studyid: ABC1
  usubjid: ABC1-202-08
  lbseq: 202
  lbtestcd: ALB
  lbtest: Albumin
  lbstresn: 4.0
  lbstnrlo: 3.4
  lbstnrhi: 4.7
  visitnum: 7
  visit: VISIT 6
  visitdy: 14
  lbnrind: NORMAL
- !ruby/object:SdtmLb
  studyid: ABC1
  usubjid: ABC1-202-08
  lbseq: 202
  lbtestcd: BUN
  lbtest: Blood Urea Nitrogen (BUN)
  lbstresn: 19.8
  lbstnrlo: 8
  lbstnrhi: 20
  visitnum: 7
  visit: VISIT 6
  visitdy: 14
  lbnrind: NORMAL
- !ruby/object:SdtmLb
  studyid: ABC1
  usubjid: ABC1-202-08
  lbseq: 202
  lbtestcd: CA
  lbtest: Calcium
  lbstresn: 9.1
  lbstnrlo: 8.5
  lbstnrhi: 10.5
  visitnum: 7
  visit: VISIT 6
  visitdy: 14
  lbnrind: NORMAL
- !ruby/object:SdtmLb
  studyid: ABC1
  usubjid: ABC1-202-08
  lbseq: 202
  lbtestcd: GLUC
  lbtest: Glucose
  lbstresn: 77.4
  lbstnrlo: 60
  lbstnrhi: 115
  visitnum: 7
  visit: VISIT 6
  visitdy: 14
  lbnrind: NORMAL
- !ruby/object:SdtmLb
  studyid: ABC1
  usubjid: ABC1-201-09
  lbseq: 203
  lbtestcd: ALB
  lbtest: Albumin
  lbstresn: 4.1
  lbstnrlo: 3.4
  lbstnrhi: 4.7
  visitnum: 1
  visit: SCREENING
  visitdy: 14
  lbnrind: NORMAL
- !ruby/object:SdtmLb
  studyid: ABC1
  usubjid: ABC1-201-09
  lbseq: 203
  lbtestcd: BUN
  lbtest: Blood Urea Nitrogen (BUN)
  lbstresn: 10.6
  lbstnrlo: 8
  lbstnrhi: 20
  visitnum: 1
  visit: SCREENING
  visitdy: 14
  lbnrind: NORMAL
- !ruby/object:SdtmLb
  studyid: ABC1
  usubjid: ABC1-201-09
  lbseq: 203
  lbtestcd: CA
  lbtest: Calcium
  lbstresn: 9.09
  lbstnrlo: 8.5
  lbstnrhi: 10.5
  visitnum: 1
  visit: SCREENING
  visitdy: 14
  lbnrind: NORMAL
- !ruby/object:SdtmLb
  studyid: ABC1
  usubjid: ABC1-201-09
  lbseq: 203
  lbtestcd: GLUC
  lbtest: Glucose
  lbstresn: 101.2
  lbstnrlo: 60
  lbstnrhi: 115
  visitnum: 1
  visit: SCREENING
  visitdy: 14
  lbnrind: NORMAL
- !ruby/object:SdtmLb
  studyid: ABC1
  usubjid: ABC1-201-09
  lbseq: 204
  lbtestcd: ALB
  lbtest: Albumin
  lbstresn: 3.9
  lbstnrlo: 3.4
  lbstnrhi: 4.7
  visitnum: 2
  visit: BASELINE
  visitdy: 14
  lbnrind: NORMAL
- !ruby/object:SdtmLb
  studyid: ABC1
  usubjid: ABC1-201-09
  lbseq: 204
  lbtestcd: BUN
  lbtest: Blood Urea Nitrogen (BUN)
  lbstresn: 16.1
  lbstnrlo: 8
  lbstnrhi: 20
  visitnum: 2
  visit: BASELINE
  visitdy: 14
  lbnrind: NORMAL
- !ruby/object:SdtmLb
  studyid: ABC1
  usubjid: ABC1-201-09
  lbseq: 204
  lbtestcd: CA
  lbtest: Calcium
  lbstresn: 9.03
  lbstnrlo: 8.5
  lbstnrhi: 10.5
  visitnum: 2
  visit: BASELINE
  visitdy: 14
  lbnrind: NORMAL
- !ruby/object:SdtmLb
  studyid: ABC1
  usubjid: ABC1-201-09
  lbseq: 204
  lbtestcd: GLUC
  lbtest: Glucose
  lbstresn: 103.7
  lbstnrlo: 60
  lbstnrhi: 115
  visitnum: 2
  visit: BASELINE
  visitdy: 14
  lbnrind: NORMAL
- !ruby/object:SdtmLb
  studyid: ABC1
  usubjid: ABC1-201-09
  lbseq: 205
  lbtestcd: ALB
  lbtest: Albumin
  lbstresn: 3.5
  lbstnrlo: 3.4
  lbstnrhi: 4.7
  visitnum: 3
  visit: VISIT 2
  visitdy: 14
  lbnrind: NORMAL
- !ruby/object:SdtmLb
  studyid: ABC1
  usubjid: ABC1-201-09
  lbseq: 205
  lbtestcd: BUN
  lbtest: Blood Urea Nitrogen (BUN)
  lbstresn: 15.9
  lbstnrlo: 8
  lbstnrhi: 20
  visitnum: 3
  visit: VISIT 2
  visitdy: 14
  lbnrind: NORMAL
- !ruby/object:SdtmLb
  studyid: ABC1
  usubjid: ABC1-201-09
  lbseq: 205
  lbtestcd: CA
  lbtest: Calcium
  lbstresn: 9.82
  lbstnrlo: 8.5
  lbstnrhi: 10.5
  visitnum: 3
  visit: VISIT 2
  visitdy: 14
  lbnrind: NORMAL
- !ruby/object:SdtmLb
  studyid: ABC1
  usubjid: ABC1-201-09
  lbseq: 205
  lbtestcd: GLUC
  lbtest: Glucose
  lbstresn: 69.0
  lbstnrlo: 60
  lbstnrhi: 115
  visitnum: 3
  visit: VISIT 2
  visitdy: 14
  lbnrind: NORMAL
- !ruby/object:SdtmLb
  studyid: ABC1
  usubjid: ABC1-201-09
  lbseq: 206
  lbtestcd: ALB
  lbtest: Albumin
  lbstresn: 4.6
  lbstnrlo: 3.4
  lbstnrhi: 4.7
  visitnum: 4
  visit: VISIT 3
  visitdy: 14
  lbnrind: NORMAL
- !ruby/object:SdtmLb
  studyid: ABC1
  usubjid: ABC1-201-09
  lbseq: 206
  lbtestcd: BUN
  lbtest: Blood Urea Nitrogen (BUN)
  lbstresn: 11.7
  lbstnrlo: 8
  lbstnrhi: 20
  visitnum: 4
  visit: VISIT 3
  visitdy: 14
  lbnrind: NORMAL
- !ruby/object:SdtmLb
  studyid: ABC1
  usubjid: ABC1-201-09
  lbseq: 206
  lbtestcd: CA
  lbtest: Calcium
  lbstresn: 10.02
  lbstnrlo: 8.5
  lbstnrhi: 10.5
  visitnum: 4
  visit: VISIT 3
  visitdy: 14
  lbnrind: NORMAL
- !ruby/object:SdtmLb
  studyid: ABC1
  usubjid: ABC1-201-09
  lbseq: 206
  lbtestcd: GLUC
  lbtest: Glucose
  lbstresn: 86.9
  lbstnrlo: 60
  lbstnrhi: 115
  visitnum: 4
  visit: VISIT 3
  visitdy: 14
  lbnrind: NORMAL
- !ruby/object:SdtmLb
  studyid: ABC1
  usubjid: ABC1-201-09
  lbseq: 207
  lbtestcd: ALB
  lbtest: Albumin
  lbstresn: 3.9
  lbstnrlo: 3.4
  lbstnrhi: 4.7
  visitnum: 5
  visit: VISIT 4
  visitdy: 14
  lbnrind: NORMAL
- !ruby/object:SdtmLb
  studyid: ABC1
  usubjid: ABC1-201-09
  lbseq: 207
  lbtestcd: BUN
  lbtest: Blood Urea Nitrogen (BUN)
  lbstresn: 13.8
  lbstnrlo: 8
  lbstnrhi: 20
  visitnum: 5
  visit: VISIT 4
  visitdy: 14
  lbnrind: NORMAL
- !ruby/object:SdtmLb
  studyid: ABC1
  usubjid: ABC1-201-09
  lbseq: 207
  lbtestcd: CA
  lbtest: Calcium
  lbstresn: 9.42
  lbstnrlo: 8.5
  lbstnrhi: 10.5
  visitnum: 5
  visit: VISIT 4
  visitdy: 14
  lbnrind: NORMAL
- !ruby/object:SdtmLb
  studyid: ABC1
  usubjid: ABC1-201-09
  lbseq: 207
  lbtestcd: GLUC
  lbtest: Glucose
  lbstresn: 68.8
  lbstnrlo: 60
  lbstnrhi: 115
  visitnum: 5
  visit: VISIT 4
  visitdy: 14
  lbnrind: NORMAL
- !ruby/object:SdtmLb
  studyid: ABC1
  usubjid: ABC1-201-09
  lbseq: 208
  lbtestcd: ALB
  lbtest: Albumin
  lbstresn: 4.0
  lbstnrlo: 3.4
  lbstnrhi: 4.7
  visitnum: 6
  visit: VISIT 5
  visitdy: 14
  lbnrind: NORMAL
- !ruby/object:SdtmLb
  studyid: ABC1
  usubjid: ABC1-201-09
  lbseq: 208
  lbtestcd: BUN
  lbtest: Blood Urea Nitrogen (BUN)
  lbstresn: 10.1
  lbstnrlo: 8
  lbstnrhi: 20
  visitnum: 6
  visit: VISIT 5
  visitdy: 14
  lbnrind: NORMAL
- !ruby/object:SdtmLb
  studyid: ABC1
  usubjid: ABC1-201-09
  lbseq: 208
  lbtestcd: CA
  lbtest: Calcium
  lbstresn: 9.94
  lbstnrlo: 8.5
  lbstnrhi: 10.5
  visitnum: 6
  visit: VISIT 5
  visitdy: 14
  lbnrind: NORMAL
- !ruby/object:SdtmLb
  studyid: ABC1
  usubjid: ABC1-201-09
  lbseq: 208
  lbtestcd: GLUC
  lbtest: Glucose
  lbstresn: 75.2
  lbstnrlo: 60
  lbstnrhi: 115
  visitnum: 6
  visit: VISIT 5
  visitdy: 14
  lbnrind: NORMAL
- !ruby/object:SdtmLb
  studyid: ABC1
  usubjid: ABC1-201-09
  lbseq: 209
  lbtestcd: ALB
  lbtest: Albumin
  lbstresn: 3.7
  lbstnrlo: 3.4
  lbstnrhi: 4.7
  visitnum: 7
  visit: VISIT 6
  visitdy: 14
  lbnrind: NORMAL
- !ruby/object:SdtmLb
  studyid: ABC1
  usubjid: ABC1-201-09
  lbseq: 209
  lbtestcd: BUN
  lbtest: Blood Urea Nitrogen (BUN)
  lbstresn: 15.4
  lbstnrlo: 8
  lbstnrhi: 20
  visitnum: 7
  visit: VISIT 6
  visitdy: 14
  lbnrind: NORMAL
- !ruby/object:SdtmLb
  studyid: ABC1
  usubjid: ABC1-201-09
  lbseq: 209
  lbtestcd: CA
  lbtest: Calcium
  lbstresn: 10.15
  lbstnrlo: 8.5
  lbstnrhi: 10.5
  visitnum: 7
  visit: VISIT 6
  visitdy: 14
  lbnrind: NORMAL
- !ruby/object:SdtmLb
  studyid: ABC1
  usubjid: ABC1-201-09
  lbseq: 209
  lbtestcd: GLUC
  lbtest: Glucose
  lbstresn: 78.7
  lbstnrlo: 60
  lbstnrhi: 115
  visitnum: 7
  visit: VISIT 6
  visitdy: 14
  lbnrind: NORMAL
- !ruby/object:SdtmLb
  studyid: ABC1
  usubjid: ABC1-303-05
  lbseq: 210
  lbtestcd: ALB
  lbtest: Albumin
  lbstresn: 4.2
  lbstnrlo: 3.4
  lbstnrhi: 4.7
  visitnum: 1
  visit: SCREENING
  visitdy: 14
  lbnrind: NORMAL
- !ruby/object:SdtmLb
  studyid: ABC1
  usubjid: ABC1-303-05
  lbseq: 210
  lbtestcd: BUN
  lbtest: Blood Urea Nitrogen (BUN)
  lbstresn: 13.4
  lbstnrlo: 8
  lbstnrhi: 20
  visitnum: 1
  visit: SCREENING
  visitdy: 14
  lbnrind: NORMAL
- !ruby/object:SdtmLb
  studyid: ABC1
  usubjid: ABC1-303-05
  lbseq: 210
  lbtestcd: CA
  lbtest: Calcium
  lbstresn: 9.69
  lbstnrlo: 8.5
  lbstnrhi: 10.5
  visitnum: 1
  visit: SCREENING
  visitdy: 14
  lbnrind: NORMAL
- !ruby/object:SdtmLb
  studyid: ABC1
  usubjid: ABC1-303-05
  lbseq: 210
  lbtestcd: GLUC
  lbtest: Glucose
  lbstresn: 95.8
  lbstnrlo: 60
  lbstnrhi: 115
  visitnum: 1
  visit: SCREENING
  visitdy: 14
  lbnrind: NORMAL
- !ruby/object:SdtmLb
  studyid: ABC1
  usubjid: ABC1-303-05
  lbseq: 211
  lbtestcd: ALB
  lbtest: Albumin
  lbstresn: 3.7
  lbstnrlo: 3.4
  lbstnrhi: 4.7
  visitnum: 2
  visit: BASELINE
  visitdy: 14
  lbnrind: NORMAL
- !ruby/object:SdtmLb
  studyid: ABC1
  usubjid: ABC1-303-05
  lbseq: 211
  lbtestcd: BUN
  lbtest: Blood Urea Nitrogen (BUN)
  lbstresn: 16.0
  lbstnrlo: 8
  lbstnrhi: 20
  visitnum: 2
  visit: BASELINE
  visitdy: 14
  lbnrind: NORMAL
- !ruby/object:SdtmLb
  studyid: ABC1
  usubjid: ABC1-303-05
  lbseq: 211
  lbtestcd: CA
  lbtest: Calcium
  lbstresn: 10.0
  lbstnrlo: 8.5
  lbstnrhi: 10.5
  visitnum: 2
  visit: BASELINE
  visitdy: 14
  lbnrind: NORMAL
- !ruby/object:SdtmLb
  studyid: ABC1
  usubjid: ABC1-303-05
  lbseq: 211
  lbtestcd: GLUC
  lbtest: Glucose
  lbstresn: 81.4
  lbstnrlo: 60
  lbstnrhi: 115
  visitnum: 2
  visit: BASELINE
  visitdy: 14
  lbnrind: NORMAL
- !ruby/object:SdtmLb
  studyid: ABC1
  usubjid: ABC1-303-05
  lbseq: 212
  lbtestcd: ALB
  lbtest: Albumin
  lbstresn: 4.0
  lbstnrlo: 3.4
  lbstnrhi: 4.7
  visitnum: 3
  visit: VISIT 2
  visitdy: 14
  lbnrind: NORMAL
- !ruby/object:SdtmLb
  studyid: ABC1
  usubjid: ABC1-303-05
  lbseq: 212
  lbtestcd: BUN
  lbtest: Blood Urea Nitrogen (BUN)
  lbstresn: 16.9
  lbstnrlo: 8
  lbstnrhi: 20
  visitnum: 3
  visit: VISIT 2
  visitdy: 14
  lbnrind: NORMAL
- !ruby/object:SdtmLb
  studyid: ABC1
  usubjid: ABC1-303-05
  lbseq: 212
  lbtestcd: CA
  lbtest: Calcium
  lbstresn: 9.74
  lbstnrlo: 8.5
  lbstnrhi: 10.5
  visitnum: 3
  visit: VISIT 2
  visitdy: 14
  lbnrind: NORMAL
- !ruby/object:SdtmLb
  studyid: ABC1
  usubjid: ABC1-303-05
  lbseq: 212
  lbtestcd: GLUC
  lbtest: Glucose
  lbstresn: 89.6
  lbstnrlo: 60
  lbstnrhi: 115
  visitnum: 3
  visit: VISIT 2
  visitdy: 14
  lbnrind: NORMAL
- !ruby/object:SdtmLb
  studyid: ABC1
  usubjid: ABC1-303-05
  lbseq: 213
  lbtestcd: ALB
  lbtest: Albumin
  lbstresn: 4.2
  lbstnrlo: 3.4
  lbstnrhi: 4.7
  visitnum: 4
  visit: VISIT 3
  visitdy: 14
  lbnrind: NORMAL
- !ruby/object:SdtmLb
  studyid: ABC1
  usubjid: ABC1-303-05
  lbseq: 213
  lbtestcd: BUN
  lbtest: Blood Urea Nitrogen (BUN)
  lbstresn: 14.1
  lbstnrlo: 8
  lbstnrhi: 20
  visitnum: 4
  visit: VISIT 3
  visitdy: 14
  lbnrind: NORMAL
- !ruby/object:SdtmLb
  studyid: ABC1
  usubjid: ABC1-303-05
  lbseq: 213
  lbtestcd: CA
  lbtest: Calcium
  lbstresn: 9.35
  lbstnrlo: 8.5
  lbstnrhi: 10.5
  visitnum: 4
  visit: VISIT 3
  visitdy: 14
  lbnrind: NORMAL
- !ruby/object:SdtmLb
  studyid: ABC1
  usubjid: ABC1-303-05
  lbseq: 213
  lbtestcd: GLUC
  lbtest: Glucose
  lbstresn: 101.3
  lbstnrlo: 60
  lbstnrhi: 115
  visitnum: 4
  visit: VISIT 3
  visitdy: 14
  lbnrind: NORMAL
- !ruby/object:SdtmLb
  studyid: ABC1
  usubjid: ABC1-303-05
  lbseq: 214
  lbtestcd: ALB
  lbtest: Albumin
  lbstresn: 4.2
  lbstnrlo: 3.4
  lbstnrhi: 4.7
  visitnum: 5
  visit: VISIT 4
  visitdy: 14
  lbnrind: NORMAL
- !ruby/object:SdtmLb
  studyid: ABC1
  usubjid: ABC1-303-05
  lbseq: 214
  lbtestcd: BUN
  lbtest: Blood Urea Nitrogen (BUN)
  lbstresn: 15.4
  lbstnrlo: 8
  lbstnrhi: 20
  visitnum: 5
  visit: VISIT 4
  visitdy: 14
  lbnrind: NORMAL
- !ruby/object:SdtmLb
  studyid: ABC1
  usubjid: ABC1-303-05
  lbseq: 214
  lbtestcd: CA
  lbtest: Calcium
  lbstresn: 8.78
  lbstnrlo: 8.5
  lbstnrhi: 10.5
  visitnum: 5
  visit: VISIT 4
  visitdy: 14
  lbnrind: NORMAL
- !ruby/object:SdtmLb
  studyid: ABC1
  usubjid: ABC1-303-05
  lbseq: 214
  lbtestcd: GLUC
  lbtest: Glucose
  lbstresn: 108.4
  lbstnrlo: 60
  lbstnrhi: 115
  visitnum: 5
  visit: VISIT 4
  visitdy: 14
  lbnrind: NORMAL
- !ruby/object:SdtmLb
  studyid: ABC1
  usubjid: ABC1-303-05
  lbseq: 215
  lbtestcd: ALB
  lbtest: Albumin
  lbstresn: 4.1
  lbstnrlo: 3.4
  lbstnrhi: 4.7
  visitnum: 6
  visit: VISIT 5
  visitdy: 14
  lbnrind: NORMAL
- !ruby/object:SdtmLb
  studyid: ABC1
  usubjid: ABC1-303-05
  lbseq: 215
  lbtestcd: BUN
  lbtest: Blood Urea Nitrogen (BUN)
  lbstresn: 14.5
  lbstnrlo: 8
  lbstnrhi: 20
  visitnum: 6
  visit: VISIT 5
  visitdy: 14
  lbnrind: NORMAL
- !ruby/object:SdtmLb
  studyid: ABC1
  usubjid: ABC1-303-05
  lbseq: 215
  lbtestcd: CA
  lbtest: Calcium
  lbstresn: 9.46
  lbstnrlo: 8.5
  lbstnrhi: 10.5
  visitnum: 6
  visit: VISIT 5
  visitdy: 14
  lbnrind: NORMAL
- !ruby/object:SdtmLb
  studyid: ABC1
  usubjid: ABC1-303-05
  lbseq: 215
  lbtestcd: GLUC
  lbtest: Glucose
  lbstresn: 68.5
  lbstnrlo: 60
  lbstnrhi: 115
  visitnum: 6
  visit: VISIT 5
  visitdy: 14
  lbnrind: NORMAL
- !ruby/object:SdtmLb
  studyid: ABC1
  usubjid: ABC1-303-05
  lbseq: 216
  lbtestcd: ALB
  lbtest: Albumin
  lbstresn: 4.2
  lbstnrlo: 3.4
  lbstnrhi: 4.7
  visitnum: 7
  visit: VISIT 6
  visitdy: 14
  lbnrind: NORMAL
- !ruby/object:SdtmLb
  studyid: ABC1
  usubjid: ABC1-303-05
  lbseq: 216
  lbtestcd: BUN
  lbtest: Blood Urea Nitrogen (BUN)
  lbstresn: 10.2
  lbstnrlo: 8
  lbstnrhi: 20
  visitnum: 7
  visit: VISIT 6
  visitdy: 14
  lbnrind: NORMAL
- !ruby/object:SdtmLb
  studyid: ABC1
  usubjid: ABC1-303-05
  lbseq: 216
  lbtestcd: CA
  lbtest: Calcium
  lbstresn: 9.06
  lbstnrlo: 8.5
  lbstnrhi: 10.5
  visitnum: 7
  visit: VISIT 6
  visitdy: 14
  lbnrind: NORMAL
- !ruby/object:SdtmLb
  studyid: ABC1
  usubjid: ABC1-303-05
  lbseq: 216
  lbtestcd: GLUC
  lbtest: Glucose
  lbstresn: 96.3
  lbstnrlo: 60
  lbstnrhi: 115
  visitnum: 7
  visit: VISIT 6
  visitdy: 14
  lbnrind: NORMAL
- !ruby/object:SdtmLb
  studyid: ABC1
  usubjid: ABC1-303-06
  lbseq: 217
  lbtestcd: ALB
  lbtest: Albumin
  lbstresn: 4.4
  lbstnrlo: 3.4
  lbstnrhi: 4.7
  visitnum: 1
  visit: SCREENING
  visitdy: 14
  lbnrind: NORMAL
- !ruby/object:SdtmLb
  studyid: ABC1
  usubjid: ABC1-303-06
  lbseq: 217
  lbtestcd: BUN
  lbtest: Blood Urea Nitrogen (BUN)
  lbstresn: 15.6
  lbstnrlo: 8
  lbstnrhi: 20
  visitnum: 1
  visit: SCREENING
  visitdy: 14
  lbnrind: NORMAL
- !ruby/object:SdtmLb
  studyid: ABC1
  usubjid: ABC1-303-06
  lbseq: 217
  lbtestcd: CA
  lbtest: Calcium
  lbstresn: 9.33
  lbstnrlo: 8.5
  lbstnrhi: 10.5
  visitnum: 1
  visit: SCREENING
  visitdy: 14
  lbnrind: NORMAL
- !ruby/object:SdtmLb
  studyid: ABC1
  usubjid: ABC1-303-06
  lbseq: 217
  lbtestcd: GLUC
  lbtest: Glucose
  lbstresn: 68.4
  lbstnrlo: 60
  lbstnrhi: 115
  visitnum: 1
  visit: SCREENING
  visitdy: 14
  lbnrind: NORMAL
- !ruby/object:SdtmLb
  studyid: ABC1
  usubjid: ABC1-303-06
  lbseq: 218
  lbtestcd: ALB
  lbtest: Albumin
  lbstresn: 4.1
  lbstnrlo: 3.4
  lbstnrhi: 4.7
  visitnum: 2
  visit: BASELINE
  visitdy: 14
  lbnrind: NORMAL
- !ruby/object:SdtmLb
  studyid: ABC1
  usubjid: ABC1-303-06
  lbseq: 218
  lbtestcd: BUN
  lbtest: Blood Urea Nitrogen (BUN)
  lbstresn: 12.5
  lbstnrlo: 8
  lbstnrhi: 20
  visitnum: 2
  visit: BASELINE
  visitdy: 14
  lbnrind: NORMAL
- !ruby/object:SdtmLb
  studyid: ABC1
  usubjid: ABC1-303-06
  lbseq: 218
  lbtestcd: CA
  lbtest: Calcium
  lbstresn: 10.23
  lbstnrlo: 8.5
  lbstnrhi: 10.5
  visitnum: 2
  visit: BASELINE
  visitdy: 14
  lbnrind: NORMAL
- !ruby/object:SdtmLb
  studyid: ABC1
  usubjid: ABC1-303-06
  lbseq: 218
  lbtestcd: GLUC
  lbtest: Glucose
  lbstresn: 83.0
  lbstnrlo: 60
  lbstnrhi: 115
  visitnum: 2
  visit: BASELINE
  visitdy: 14
  lbnrind: NORMAL
- !ruby/object:SdtmLb
  studyid: ABC1
  usubjid: ABC1-303-06
  lbseq: 219
  lbtestcd: ALB
  lbtest: Albumin
  lbstresn: 3.7
  lbstnrlo: 3.4
  lbstnrhi: 4.7
  visitnum: 3
  visit: VISIT 2
  visitdy: 14
  lbnrind: NORMAL
- !ruby/object:SdtmLb
  studyid: ABC1
  usubjid: ABC1-303-06
  lbseq: 219
  lbtestcd: BUN
  lbtest: Blood Urea Nitrogen (BUN)
  lbstresn: 11.4
  lbstnrlo: 8
  lbstnrhi: 20
  visitnum: 3
  visit: VISIT 2
  visitdy: 14
  lbnrind: NORMAL
- !ruby/object:SdtmLb
  studyid: ABC1
  usubjid: ABC1-303-06
  lbseq: 219
  lbtestcd: CA
  lbtest: Calcium
  lbstresn: 8.74
  lbstnrlo: 8.5
  lbstnrhi: 10.5
  visitnum: 3
  visit: VISIT 2
  visitdy: 14
  lbnrind: NORMAL
- !ruby/object:SdtmLb
  studyid: ABC1
  usubjid: ABC1-303-06
  lbseq: 219
  lbtestcd: GLUC
  lbtest: Glucose
  lbstresn: 101.4
  lbstnrlo: 60
  lbstnrhi: 115
  visitnum: 3
  visit: VISIT 2
  visitdy: 14
  lbnrind: NORMAL
- !ruby/object:SdtmLb
  studyid: ABC1
  usubjid: ABC1-303-06
  lbseq: 220
  lbtestcd: ALB
  lbtest: Albumin
  lbstresn: 4.3
  lbstnrlo: 3.4
  lbstnrhi: 4.7
  visitnum: 4
  visit: VISIT 3
  visitdy: 14
  lbnrind: NORMAL
- !ruby/object:SdtmLb
  studyid: ABC1
  usubjid: ABC1-303-06
  lbseq: 220
  lbtestcd: BUN
  lbtest: Blood Urea Nitrogen (BUN)
  lbstresn: 15.2
  lbstnrlo: 8
  lbstnrhi: 20
  visitnum: 4
  visit: VISIT 3
  visitdy: 14
  lbnrind: NORMAL
- !ruby/object:SdtmLb
  studyid: ABC1
  usubjid: ABC1-303-06
  lbseq: 220
  lbtestcd: CA
  lbtest: Calcium
  lbstresn: 9.95
  lbstnrlo: 8.5
  lbstnrhi: 10.5
  visitnum: 4
  visit: VISIT 3
  visitdy: 14
  lbnrind: NORMAL
- !ruby/object:SdtmLb
  studyid: ABC1
  usubjid: ABC1-303-06
  lbseq: 220
  lbtestcd: GLUC
  lbtest: Glucose
  lbstresn: 103.8
  lbstnrlo: 60
  lbstnrhi: 115
  visitnum: 4
  visit: VISIT 3
  visitdy: 14
  lbnrind: NORMAL
- !ruby/object:SdtmLb
  studyid: ABC1
  usubjid: ABC1-303-06
  lbseq: 221
  lbtestcd: ALB
  lbtest: Albumin
  lbstresn: 4.2
  lbstnrlo: 3.4
  lbstnrhi: 4.7
  visitnum: 5
  visit: VISIT 4
  visitdy: 14
  lbnrind: NORMAL
- !ruby/object:SdtmLb
  studyid: ABC1
  usubjid: ABC1-303-06
  lbseq: 221
  lbtestcd: BUN
  lbtest: Blood Urea Nitrogen (BUN)
  lbstresn: 14.5
  lbstnrlo: 8
  lbstnrhi: 20
  visitnum: 5
  visit: VISIT 4
  visitdy: 14
  lbnrind: NORMAL
- !ruby/object:SdtmLb
  studyid: ABC1
  usubjid: ABC1-303-06
  lbseq: 221
  lbtestcd: CA
  lbtest: Calcium
  lbstresn: 9.13
  lbstnrlo: 8.5
  lbstnrhi: 10.5
  visitnum: 5
  visit: VISIT 4
  visitdy: 14
  lbnrind: NORMAL
- !ruby/object:SdtmLb
  studyid: ABC1
  usubjid: ABC1-303-06
  lbseq: 221
  lbtestcd: GLUC
  lbtest: Glucose
  lbstresn: 79.4
  lbstnrlo: 60
  lbstnrhi: 115
  visitnum: 5
  visit: VISIT 4
  visitdy: 14
  lbnrind: NORMAL
- !ruby/object:SdtmLb
  studyid: ABC1
  usubjid: ABC1-303-06
  lbseq: 222
  lbtestcd: ALB
  lbtest: Albumin
  lbstresn: 4.3
  lbstnrlo: 3.4
  lbstnrhi: 4.7
  visitnum: 6
  visit: VISIT 5
  visitdy: 14
  lbnrind: NORMAL
- !ruby/object:SdtmLb
  studyid: ABC1
  usubjid: ABC1-303-06
  lbseq: 222
  lbtestcd: BUN
  lbtest: Blood Urea Nitrogen (BUN)
  lbstresn: 14.8
  lbstnrlo: 8
  lbstnrhi: 20
  visitnum: 6
  visit: VISIT 5
  visitdy: 14
  lbnrind: NORMAL
- !ruby/object:SdtmLb
  studyid: ABC1
  usubjid: ABC1-303-06
  lbseq: 222
  lbtestcd: CA
  lbtest: Calcium
  lbstresn: 9.13
  lbstnrlo: 8.5
  lbstnrhi: 10.5
  visitnum: 6
  visit: VISIT 5
  visitdy: 14
  lbnrind: NORMAL
- !ruby/object:SdtmLb
  studyid: ABC1
  usubjid: ABC1-303-06
  lbseq: 222
  lbtestcd: GLUC
  lbtest: Glucose
  lbstresn: 89.4
  lbstnrlo: 60
  lbstnrhi: 115
  visitnum: 6
  visit: VISIT 5
  visitdy: 14
  lbnrind: NORMAL
- !ruby/object:SdtmLb
  studyid: ABC1
  usubjid: ABC1-303-06
  lbseq: 223
  lbtestcd: ALB
  lbtest: Albumin
  lbstresn: 4.1
  lbstnrlo: 3.4
  lbstnrhi: 4.7
  visitnum: 7
  visit: VISIT 6
  visitdy: 14
  lbnrind: NORMAL
- !ruby/object:SdtmLb
  studyid: ABC1
  usubjid: ABC1-303-06
  lbseq: 223
  lbtestcd: BUN
  lbtest: Blood Urea Nitrogen (BUN)
  lbstresn: 12.7
  lbstnrlo: 8
  lbstnrhi: 20
  visitnum: 7
  visit: VISIT 6
  visitdy: 14
  lbnrind: NORMAL
- !ruby/object:SdtmLb
  studyid: ABC1
  usubjid: ABC1-303-06
  lbseq: 223
  lbtestcd: CA
  lbtest: Calcium
  lbstresn: 9.08
  lbstnrlo: 8.5
  lbstnrhi: 10.5
  visitnum: 7
  visit: VISIT 6
  visitdy: 14
  lbnrind: NORMAL
- !ruby/object:SdtmLb
  studyid: ABC1
  usubjid: ABC1-303-06
  lbseq: 223
  lbtestcd: GLUC
  lbtest: Glucose
  lbstresn: 69.8
  lbstnrlo: 60
  lbstnrhi: 115
  visitnum: 7
  visit: VISIT 6
  visitdy: 14
  lbnrind: NORMAL
- !ruby/object:SdtmLb
  studyid: ABC1
  usubjid: ABC1-201-10
  lbseq: 224
  lbtestcd: ALB
  lbtest: Albumin
  lbstresn: 4.6
  lbstnrlo: 3.4
  lbstnrhi: 4.7
  visitnum: 1
  visit: SCREENING
  visitdy: 14
  lbnrind: NORMAL
- !ruby/object:SdtmLb
  studyid: ABC1
  usubjid: ABC1-201-10
  lbseq: 224
  lbtestcd: BUN
  lbtest: Blood Urea Nitrogen (BUN)
  lbstresn: 13.8
  lbstnrlo: 8
  lbstnrhi: 20
  visitnum: 1
  visit: SCREENING
  visitdy: 14
  lbnrind: NORMAL
- !ruby/object:SdtmLb
  studyid: ABC1
  usubjid: ABC1-201-10
  lbseq: 224
  lbtestcd: CA
  lbtest: Calcium
  lbstresn: 9.19
