---
ABC1-101-01:
- !ruby/object:SdtmSv
  studyid: ABC1
  usubjid: ABC1-101-01
  visitnum: 1
  visit: SCREENING
  visitdy: 14
  svstdtc: 2014-04-25
  svendtc: 2014-04-25
  svstdy: -15
  svendy: -15
- !ruby/object:SdtmSv
  studyid: ABC1
  usubjid: ABC1-101-01
  visitnum: 2
  visit: BASELINE
  visitdy: 14
  svstdtc: 2014-05-10
  svendtc: 2014-05-10
  svstdy: 0
  svendy: 0
- !ruby/object:SdtmSv
  studyid: ABC1
  usubjid: ABC1-101-01
  visitnum: 3
  visit: VISIT 2
  visitdy: 14
  svstdtc: 2014-05-17
  svendtc: 2014-05-17
  svstdy: 7
  svendy: 7
- !ruby/object:SdtmSv
  studyid: ABC1
  usubjid: ABC1-101-01
  visitnum: 4
  visit: VISIT 3
  visitdy: 14
  svstdtc: 2014-05-23
  svendtc: 2014-05-23
  svstdy: 13
  svendy: 13
- !ruby/object:SdtmSv
  studyid: ABC1
  usubjid: ABC1-101-01
  visitnum: 5
  visit: VISIT 4
  visitdy: 14
  svstdtc: 2014-05-30
  svendtc: 2014-05-30
  svstdy: 20
  svendy: 20
- !ruby/object:SdtmSv
  studyid: ABC1
  usubjid: ABC1-101-01
  visitnum: 6
  visit: VISIT 5
  visitdy: 14
  svstdtc: 2014-06-06
  svendtc: 2014-06-06
  svstdy: 27
  svendy: 27
- !ruby/object:SdtmSv
  studyid: ABC1
  usubjid: ABC1-101-01
  visitnum: 7
  visit: VISIT 6
  visitdy: 14
  svstdtc: 2014-06-11
  svendtc: 2014-06-11
  svstdy: 32
  svendy: 32
ABC1-101-02:
- !ruby/object:SdtmSv
  studyid: ABC1
  usubjid: ABC1-101-02
  visitnum: 1
  visit: SCREENING
  visitdy: 14
  svstdtc: 2014-08-07
  svendtc: 2014-08-07
  svstdy: -14
  svendy: -14
- !ruby/object:SdtmSv
  studyid: ABC1
  usubjid: ABC1-101-02
  visitnum: 2
  visit: BASELINE
  visitdy: 14
  svstdtc: 2014-08-21
  svendtc: 2014-08-21
  svstdy: 0
  svendy: 0
- !ruby/object:SdtmSv
  studyid: ABC1
  usubjid: ABC1-101-02
  visitnum: 3
  visit: VISIT 2
  visitdy: 14
  svstdtc: 2014-08-27
  svendtc: 2014-08-27
  svstdy: 6
  svendy: 6
- !ruby/object:SdtmSv
  studyid: ABC1
  usubjid: ABC1-101-02
  visitnum: 4
  visit: VISIT 3
  visitdy: 14
  svstdtc: 2014-09-01
  svendtc: 2014-09-01
  svstdy: 11
  svendy: 11
- !ruby/object:SdtmSv
  studyid: ABC1
  usubjid: ABC1-101-02
  visitnum: 5
  visit: VISIT 4
  visitdy: 14
  svstdtc: 2014-09-08
  svendtc: 2014-09-08
  svstdy: 18
  svendy: 18
- !ruby/object:SdtmSv
  studyid: ABC1
  usubjid: ABC1-101-02
  visitnum: 6
  visit: VISIT 5
  visitdy: 14
  svstdtc: 2014-09-14
  svendtc: 2014-09-14
  svstdy: 24
  svendy: 24
- !ruby/object:SdtmSv
  studyid: ABC1
  usubjid: ABC1-101-02
  visitnum: 7
  visit: VISIT 6
  visitdy: 14
  svstdtc: 2014-09-21
  svendtc: 2014-09-21
  svstdy: 31
  svendy: 31
ABC1-101-03:
- !ruby/object:SdtmSv
  studyid: ABC1
  usubjid: ABC1-101-03
  visitnum: 1
  visit: SCREENING
  visitdy: 14
  svstdtc: 2014-05-28
  svendtc: 2014-05-28
  svstdy: -14
  svendy: -14
- !ruby/object:SdtmSv
  studyid: ABC1
  usubjid: ABC1-101-03
  visitnum: 2
  visit: BASELINE
  visitdy: 14
  svstdtc: 2014-06-11
  svendtc: 2014-06-11
  svstdy: 0
  svendy: 0
- !ruby/object:SdtmSv
  studyid: ABC1
  usubjid: ABC1-101-03
  visitnum: 3
  visit: VISIT 2
  visitdy: 14
  svstdtc: 2014-06-18
  svendtc: 2014-06-18
  svstdy: 7
  svendy: 7
- !ruby/object:SdtmSv
  studyid: ABC1
  usubjid: ABC1-101-03
  visitnum: 4
  visit: VISIT 3
  visitdy: 14
  svstdtc: 2014-06-26
  svendtc: 2014-06-26
  svstdy: 15
  svendy: 15
ABC1-101-04:
- !ruby/object:SdtmSv
  studyid: ABC1
  usubjid: ABC1-101-04
  visitnum: 1
  visit: SCREENING
  visitdy: 14
  svstdtc: 2014-03-25
  svendtc: 2014-03-25
  svstdy: -15
  svendy: -15
- !ruby/object:SdtmSv
  studyid: ABC1
  usubjid: ABC1-101-04
  visitnum: 2
  visit: BASELINE
  visitdy: 14
  svstdtc: 2014-04-09
  svendtc: 2014-04-09
  svstdy: 0
  svendy: 0
- !ruby/object:SdtmSv
  studyid: ABC1
  usubjid: ABC1-101-04
  visitnum: 3
  visit: VISIT 2
  visitdy: 14
  svstdtc: 2014-04-16
  svendtc: 2014-04-16
  svstdy: 7
  svendy: 7
- !ruby/object:SdtmSv
  studyid: ABC1
  usubjid: ABC1-101-04
  visitnum: 4
  visit: VISIT 3
  visitdy: 14
  svstdtc: 2014-04-24
  svendtc: 2014-04-24
  svstdy: 15
  svendy: 15
- !ruby/object:SdtmSv
  studyid: ABC1
  usubjid: ABC1-101-04
  visitnum: 5
  visit: VISIT 4
  visitdy: 14
  svstdtc: 2014-04-30
  svendtc: 2014-04-30
  svstdy: 21
  svendy: 21
ABC1-101-05:
- !ruby/object:SdtmSv
  studyid: ABC1
  usubjid: ABC1-101-05
  visitnum: 1
  visit: SCREENING
  visitdy: 14
  svstdtc: 2014-06-11
  svendtc: 2014-06-11
  svstdy: -14
  svendy: -14
- !ruby/object:SdtmSv
  studyid: ABC1
  usubjid: ABC1-101-05
  visitnum: 2
  visit: BASELINE
  visitdy: 14
  svstdtc: 2014-06-25
  svendtc: 2014-06-25
  svstdy: 0
  svendy: 0
- !ruby/object:SdtmSv
  studyid: ABC1
  usubjid: ABC1-101-05
  visitnum: 3
  visit: VISIT 2
  visitdy: 14
  svstdtc: 2014-07-01
  svendtc: 2014-07-01
  svstdy: 6
  svendy: 6
- !ruby/object:SdtmSv
  studyid: ABC1
  usubjid: ABC1-101-05
  visitnum: 4
  visit: VISIT 3
  visitdy: 14
  svstdtc: 2014-07-07
  svendtc: 2014-07-07
  svstdy: 12
  svendy: 12
- !ruby/object:SdtmSv
  studyid: ABC1
  usubjid: ABC1-101-05
  visitnum: 5
  visit: VISIT 4
  visitdy: 14
  svstdtc: 2014-07-14
  svendtc: 2014-07-14
  svstdy: 19
  svendy: 19
- !ruby/object:SdtmSv
  studyid: ABC1
  usubjid: ABC1-101-05
  visitnum: 6
  visit: VISIT 5
  visitdy: 14
  svstdtc: 2014-07-21
  svendtc: 2014-07-21
  svstdy: 26
  svendy: 26
- !ruby/object:SdtmSv
  studyid: ABC1
  usubjid: ABC1-101-05
  visitnum: 7
  visit: VISIT 6
  visitdy: 14
  svstdtc: 2014-07-27
  svendtc: 2014-07-27
  svstdy: 32
  svendy: 32
ABC1-101-06:
- !ruby/object:SdtmSv
  studyid: ABC1
  usubjid: ABC1-101-06
  visitnum: 1
  visit: SCREENING
  visitdy: 14
  svstdtc: 2014-02-18
  svendtc: 2014-02-18
  svstdy: -12
  svendy: -12
- !ruby/object:SdtmSv
  studyid: ABC1
  usubjid: ABC1-101-06
  visitnum: 2
  visit: BASELINE
  visitdy: 14
  svstdtc: 2014-03-02
  svendtc: 2014-03-02
  svstdy: 0
  svendy: 0
- !ruby/object:SdtmSv
  studyid: ABC1
  usubjid: ABC1-101-06
  visitnum: 3
  visit: VISIT 2
  visitdy: 14
  svstdtc: 2014-03-09
  svendtc: 2014-03-09
  svstdy: 7
  svendy: 7
- !ruby/object:SdtmSv
  studyid: ABC1
  usubjid: ABC1-101-06
  visitnum: 4
  visit: VISIT 3
  visitdy: 14
  svstdtc: 2014-03-16
  svendtc: 2014-03-16
  svstdy: 14
  svendy: 14
- !ruby/object:SdtmSv
  studyid: ABC1
  usubjid: ABC1-101-06
  visitnum: 5
  visit: VISIT 4
  visitdy: 14
  svstdtc: 2014-03-22
  svendtc: 2014-03-22
  svstdy: 20
  svendy: 20
- !ruby/object:SdtmSv
  studyid: ABC1
  usubjid: ABC1-101-06
  visitnum: 6
  visit: VISIT 5
  visitdy: 14
  svstdtc: 2014-03-28
  svendtc: 2014-03-28
  svstdy: 26
  svendy: 26
- !ruby/object:SdtmSv
  studyid: ABC1
  usubjid: ABC1-101-06
  visitnum: 7
  visit: VISIT 6
  visitdy: 14
  svstdtc: 2014-04-05
  svendtc: 2014-04-05
  svstdy: 34
  svendy: 34
ABC1-101-08:
- !ruby/object:SdtmSv
  studyid: ABC1
  usubjid: ABC1-101-08
  visitnum: 1
  visit: SCREENING
  visitdy: 14
  svstdtc: 2014-02-28
  svendtc: 2014-02-28
  svstdy: -15
  svendy: -15
- !ruby/object:SdtmSv
  studyid: ABC1
  usubjid: ABC1-101-08
  visitnum: 2
  visit: BASELINE
  visitdy: 14
  svstdtc: 2014-03-15
  svendtc: 2014-03-15
  svstdy: 0
  svendy: 0
- !ruby/object:SdtmSv
  studyid: ABC1
  usubjid: ABC1-101-08
  visitnum: 3
  visit: VISIT 2
  visitdy: 14
  svstdtc: 2014-03-22
  svendtc: 2014-03-22
  svstdy: 7
  svendy: 7
- !ruby/object:SdtmSv
  studyid: ABC1
  usubjid: ABC1-101-08
  visitnum: 4
  visit: VISIT 3
  visitdy: 14
  svstdtc: 2014-03-29
  svendtc: 2014-03-29
  svstdy: 14
  svendy: 14
- !ruby/object:SdtmSv
  studyid: ABC1
  usubjid: ABC1-101-08
  visitnum: 5
  visit: VISIT 4
  visitdy: 14
  svstdtc: 2014-04-05
  svendtc: 2014-04-05
  svstdy: 21
  svendy: 21
- !ruby/object:SdtmSv
  studyid: ABC1
  usubjid: ABC1-101-08
  visitnum: 6
  visit: VISIT 5
  visitdy: 14
  svstdtc: 2014-04-11
  svendtc: 2014-04-11
  svstdy: 27
  svendy: 27
- !ruby/object:SdtmSv
  studyid: ABC1
  usubjid: ABC1-101-08
  visitnum: 7
  visit: VISIT 6
  visitdy: 14
  svstdtc: 2014-04-18
  svendtc: 2014-04-18
  svstdy: 34
  svendy: 34
ABC1-101-09:
- !ruby/object:SdtmSv
  studyid: ABC1
  usubjid: ABC1-101-09
  visitnum: 1
  visit: SCREENING
  visitdy: 14
  svstdtc: 2014-07-09
  svendtc: 2014-07-09
  svstdy: -13
  svendy: -13
- !ruby/object:SdtmSv
  studyid: ABC1
  usubjid: ABC1-101-09
  visitnum: 2
  visit: BASELINE
  visitdy: 14
  svstdtc: 2014-07-22
  svendtc: 2014-07-22
  svstdy: 0
  svendy: 0
- !ruby/object:SdtmSv
  studyid: ABC1
  usubjid: ABC1-101-09
  visitnum: 3
  visit: VISIT 2
  visitdy: 14
  svstdtc: 2014-07-29
  svendtc: 2014-07-29
  svstdy: 7
  svendy: 7
- !ruby/object:SdtmSv
  studyid: ABC1
  usubjid: ABC1-101-09
  visitnum: 4
  visit: VISIT 3
  visitdy: 14
  svstdtc: 2014-08-06
  svendtc: 2014-08-06
  svstdy: 15
  svendy: 15
- !ruby/object:SdtmSv
  studyid: ABC1
  usubjid: ABC1-101-09
  visitnum: 5
  visit: VISIT 4
  visitdy: 14
  svstdtc: 2014-08-13
  svendtc: 2014-08-13
  svstdy: 22
  svendy: 22
- !ruby/object:SdtmSv
  studyid: ABC1
  usubjid: ABC1-101-09
  visitnum: 6
  visit: VISIT 5
  visitdy: 14
  svstdtc: 2014-08-20
  svendtc: 2014-08-20
  svstdy: 29
  svendy: 29
- !ruby/object:SdtmSv
  studyid: ABC1
  usubjid: ABC1-101-09
  visitnum: 7
  visit: VISIT 6
  visitdy: 14
  svstdtc: 2014-08-25
  svendtc: 2014-08-25
  svstdy: 34
  svendy: 34
ABC1-101-10:
- !ruby/object:SdtmSv
  studyid: ABC1
  usubjid: ABC1-101-10
  visitnum: 1
  visit: SCREENING
  visitdy: 14
  svstdtc: 2014-03-21
  svendtc: 2014-03-21
  svstdy: -13
  svendy: -13
- !ruby/object:SdtmSv
  studyid: ABC1
  usubjid: ABC1-101-10
  visitnum: 2
  visit: BASELINE
  visitdy: 14
  svstdtc: 2014-04-03
  svendtc: 2014-04-03
  svstdy: 0
  svendy: 0
ABC1-102-02:
- !ruby/object:SdtmSv
  studyid: ABC1
  usubjid: ABC1-102-02
  visitnum: 1
  visit: SCREENING
  visitdy: 14
  svstdtc: 2014-05-08
  svendtc: 2014-05-08
  svstdy: -15
  svendy: -15
- !ruby/object:SdtmSv
  studyid: ABC1
  usubjid: ABC1-102-02
  visitnum: 2
  visit: BASELINE
  visitdy: 14
  svstdtc: 2014-05-23
  svendtc: 2014-05-23
  svstdy: 0
  svendy: 0
- !ruby/object:SdtmSv
  studyid: ABC1
  usubjid: ABC1-102-02
  visitnum: 3
  visit: VISIT 2
  visitdy: 14
  svstdtc: 2014-05-31
  svendtc: 2014-05-31
  svstdy: 8
  svendy: 8
- !ruby/object:SdtmSv
  studyid: ABC1
  usubjid: ABC1-102-02
  visitnum: 4
  visit: VISIT 3
  visitdy: 14
  svstdtc: 2014-06-07
  svendtc: 2014-06-07
  svstdy: 15
  svendy: 15
- !ruby/object:SdtmSv
  studyid: ABC1
  usubjid: ABC1-102-02
  visitnum: 5
  visit: VISIT 4
  visitdy: 14
  svstdtc: 2014-06-15
  svendtc: 2014-06-15
  svstdy: 23
  svendy: 23
- !ruby/object:SdtmSv
  studyid: ABC1
  usubjid: ABC1-102-02
  visitnum: 6
  visit: VISIT 5
  visitdy: 14
  svstdtc: 2014-06-22
  svendtc: 2014-06-22
  svstdy: 30
  svendy: 30
- !ruby/object:SdtmSv
  studyid: ABC1
  usubjid: ABC1-102-02
  visitnum: 7
  visit: VISIT 6
  visitdy: 14
  svstdtc: 2014-06-29
  svendtc: 2014-06-29
  svstdy: 37
  svendy: 37
ABC1-102-04:
- !ruby/object:SdtmSv
  studyid: ABC1
  usubjid: ABC1-102-04
  visitnum: 1
  visit: SCREENING
  visitdy: 14
  svstdtc: 2014-06-01
  svendtc: 2014-06-01
  svstdy: -11
  svendy: -11
- !ruby/object:SdtmSv
  studyid: ABC1
  usubjid: ABC1-102-04
  visitnum: 2
  visit: BASELINE
  visitdy: 14
  svstdtc: 2014-06-12
  svendtc: 2014-06-12
  svstdy: 0
  svendy: 0
- !ruby/object:SdtmSv
  studyid: ABC1
  usubjid: ABC1-102-04
  visitnum: 3
  visit: VISIT 2
  visitdy: 14
  svstdtc: 2014-06-18
  svendtc: 2014-06-18
  svstdy: 6
  svendy: 6
- !ruby/object:SdtmSv
  studyid: ABC1
  usubjid: ABC1-102-04
  visitnum: 4
  visit: VISIT 3
  visitdy: 14
  svstdtc: 2014-06-26
  svendtc: 2014-06-26
  svstdy: 14
  svendy: 14
- !ruby/object:SdtmSv
  studyid: ABC1
  usubjid: ABC1-102-04
  visitnum: 5
  visit: VISIT 4
  visitdy: 14
  svstdtc: 2014-07-02
  svendtc: 2014-07-02
  svstdy: 20
  svendy: 20
- !ruby/object:SdtmSv
  studyid: ABC1
  usubjid: ABC1-102-04
  visitnum: 6
  visit: VISIT 5
  visitdy: 14
  svstdtc: 2014-07-10
  svendtc: 2014-07-10
  svstdy: 28
  svendy: 28
- !ruby/object:SdtmSv
  studyid: ABC1
  usubjid: ABC1-102-04
  visitnum: 7
  visit: VISIT 6
  visitdy: 14
  svstdtc: 2014-07-17
  svendtc: 2014-07-17
  svstdy: 35
  svendy: 35
ABC1-102-05:
- !ruby/object:SdtmSv
  studyid: ABC1
  usubjid: ABC1-102-05
  visitnum: 1
  visit: SCREENING
  visitdy: 14
  svstdtc: 2014-04-29
  svendtc: 2014-04-29
  svstdy: -14
  svendy: -14
- !ruby/object:SdtmSv
  studyid: ABC1
  usubjid: ABC1-102-05
  visitnum: 2
  visit: BASELINE
  visitdy: 14
  svstdtc: 2014-05-13
  svendtc: 2014-05-13
  svstdy: 0
  svendy: 0
- !ruby/object:SdtmSv
  studyid: ABC1
  usubjid: ABC1-102-05
  visitnum: 3
  visit: VISIT 2
  visitdy: 14
  svstdtc: 2014-05-20
  svendtc: 2014-05-20
  svstdy: 7
  svendy: 7
- !ruby/object:SdtmSv
  studyid: ABC1
  usubjid: ABC1-102-05
  visitnum: 4
  visit: VISIT 3
  visitdy: 14
  svstdtc: 2014-05-26
  svendtc: 2014-05-26
  svstdy: 13
  svendy: 13
ABC1-102-06:
- !ruby/object:SdtmSv
  studyid: ABC1
  usubjid: ABC1-102-06
  visitnum: 1
  visit: SCREENING
  visitdy: 14
  svstdtc: 2014-02-28
  svendtc: 2014-02-28
  svstdy: -14
  svendy: -14
- !ruby/object:SdtmSv
  studyid: ABC1
  usubjid: ABC1-102-06
  visitnum: 2
  visit: BASELINE
  visitdy: 14
  svstdtc: 2014-03-14
  svendtc: 2014-03-14
  svstdy: 0
  svendy: 0
- !ruby/object:SdtmSv
  studyid: ABC1
  usubjid: ABC1-102-06
  visitnum: 3
  visit: VISIT 2
  visitdy: 14
  svstdtc: 2014-03-21
  svendtc: 2014-03-21
  svstdy: 7
  svendy: 7
- !ruby/object:SdtmSv
  studyid: ABC1
  usubjid: ABC1-102-06
  visitnum: 4
  visit: VISIT 3
  visitdy: 14
  svstdtc: 2014-03-29
  svendtc: 2014-03-29
  svstdy: 15
  svendy: 15
- !ruby/object:SdtmSv
  studyid: ABC1
  usubjid: ABC1-102-06
  visitnum: 5
  visit: VISIT 4
  visitdy: 14
  svstdtc: 2014-04-03
  svendtc: 2014-04-03
  svstdy: 20
  svendy: 20
- !ruby/object:SdtmSv
  studyid: ABC1
  usubjid: ABC1-102-06
  visitnum: 6
  visit: VISIT 5
  visitdy: 14
  svstdtc: 2014-04-10
  svendtc: 2014-04-10
  svstdy: 27
  svendy: 27
- !ruby/object:SdtmSv
  studyid: ABC1
  usubjid: ABC1-102-06
  visitnum: 7
  visit: VISIT 6
  visitdy: 14
  svstdtc: 2014-04-17
  svendtc: 2014-04-17
  svstdy: 34
  svendy: 34
ABC1-102-08:
- !ruby/object:SdtmSv
  studyid: ABC1
  usubjid: ABC1-102-08
  visitnum: 1
  visit: SCREENING
  visitdy: 14
  svstdtc: 2014-05-08
  svendtc: 2014-05-08
  svstdy: -11
  svendy: -11
- !ruby/object:SdtmSv
  studyid: ABC1
  usubjid: ABC1-102-08
  visitnum: 2
  visit: BASELINE
  visitdy: 14
  svstdtc: 2014-05-19
  svendtc: 2014-05-19
  svstdy: 0
  svendy: 0
- !ruby/object:SdtmSv
  studyid: ABC1
  usubjid: ABC1-102-08
  visitnum: 3
  visit: VISIT 2
  visitdy: 14
  svstdtc: 2014-05-26
  svendtc: 2014-05-26
  svstdy: 7
  svendy: 7
- !ruby/object:SdtmSv
  studyid: ABC1
  usubjid: ABC1-102-08
  visitnum: 4
  visit: VISIT 3
  visitdy: 14
  svstdtc: 2014-06-02
  svendtc: 2014-06-02
  svstdy: 14
  svendy: 14
- !ruby/object:SdtmSv
  studyid: ABC1
  usubjid: ABC1-102-08
  visitnum: 5
  visit: VISIT 4
  visitdy: 14
  svstdtc: 2014-06-09
  svendtc: 2014-06-09
  svstdy: 21
  svendy: 21
- !ruby/object:SdtmSv
  studyid: ABC1
  usubjid: ABC1-102-08
  visitnum: 6
  visit: VISIT 5
  visitdy: 14
  svstdtc: 2014-06-14
  svendtc: 2014-06-14
  svstdy: 26
  svendy: 26
ABC1-102-09:
- !ruby/object:SdtmSv
  studyid: ABC1
  usubjid: ABC1-102-09
  visitnum: 1
  visit: SCREENING
  visitdy: 14
  svstdtc: 2014-05-19
  svendtc: 2014-05-19
  svstdy: -15
  svendy: -15
- !ruby/object:SdtmSv
  studyid: ABC1
  usubjid: ABC1-102-09
  visitnum: 2
  visit: BASELINE
  visitdy: 14
  svstdtc: 2014-06-03
  svendtc: 2014-06-03
  svstdy: 0
  svendy: 0
ABC1-102-11:
- !ruby/object:SdtmSv
  studyid: ABC1
  usubjid: ABC1-102-11
  visitnum: 1
  visit: SCREENING
  visitdy: 14
  svstdtc: 2014-02-26
  svendtc: 2014-02-26
  svstdy: -14
  svendy: -14
- !ruby/object:SdtmSv
  studyid: ABC1
  usubjid: ABC1-102-11
  visitnum: 2
  visit: BASELINE
  visitdy: 14
  svstdtc: 2014-03-12
  svendtc: 2014-03-12
  svstdy: 0
  svendy: 0
ABC1-102-12:
- !ruby/object:SdtmSv
  studyid: ABC1
  usubjid: ABC1-102-12
  visitnum: 1
  visit: SCREENING
  visitdy: 14
  svstdtc: 2014-05-04
  svendtc: 2014-05-04
  svstdy: -14
  svendy: -14
- !ruby/object:SdtmSv
  studyid: ABC1
  usubjid: ABC1-102-12
  visitnum: 2
  visit: BASELINE
  visitdy: 14
  svstdtc: 2014-05-18
  svendtc: 2014-05-18
  svstdy: 0
  svendy: 0
- !ruby/object:SdtmSv
  studyid: ABC1
  usubjid: ABC1-102-12
  visitnum: 3
  visit: VISIT 2
  visitdy: 14
  svstdtc: 2014-05-25
  svendtc: 2014-05-25
  svstdy: 7
  svendy: 7
- !ruby/object:SdtmSv
  studyid: ABC1
  usubjid: ABC1-102-12
  visitnum: 4
  visit: VISIT 3
  visitdy: 14
  svstdtc: 2014-05-31
  svendtc: 2014-05-31
  svstdy: 13
  svendy: 13
ABC1-102-13:
- !ruby/object:SdtmSv
  studyid: ABC1
  usubjid: ABC1-102-13
  visitnum: 1
  visit: SCREENING
  visitdy: 14
  svstdtc: 2014-03-06
  svendtc: 2014-03-06
  svstdy: -11
  svendy: -11
- !ruby/object:SdtmSv
  studyid: ABC1
  usubjid: ABC1-102-13
  visitnum: 2
  visit: BASELINE
  visitdy: 14
  svstdtc: 2014-03-17
  svendtc: 2014-03-17
  svstdy: 0
  svendy: 0
- !ruby/object:SdtmSv
  studyid: ABC1
  usubjid: ABC1-102-13
  visitnum: 3
  visit: VISIT 2
  visitdy: 14
  svstdtc: 2014-03-24
  svendtc: 2014-03-24
  svstdy: 7
  svendy: 7
- !ruby/object:SdtmSv
  studyid: ABC1
  usubjid: ABC1-102-13
  visitnum: 4
  visit: VISIT 3
  visitdy: 14
  svstdtc: 2014-03-30
  svendtc: 2014-03-30
  svstdy: 13
  svendy: 13
- !ruby/object:SdtmSv
  studyid: ABC1
  usubjid: ABC1-102-13
  visitnum: 5
  visit: VISIT 4
  visitdy: 14
  svstdtc: 2014-04-07
  svendtc: 2014-04-07
  svstdy: 21
  svendy: 21
- !ruby/object:SdtmSv
  studyid: ABC1
  usubjid: ABC1-102-13
  visitnum: 6
  visit: VISIT 5
  visitdy: 14
  svstdtc: 2014-04-14
  svendtc: 2014-04-14
  svstdy: 28
  svendy: 28
- !ruby/object:SdtmSv
  studyid: ABC1
  usubjid: ABC1-102-13
  visitnum: 7
  visit: VISIT 6
  visitdy: 14
  svstdtc: 2014-04-21
  svendtc: 2014-04-21
  svstdy: 35
  svendy: 35
ABC1-102-14:
- !ruby/object:SdtmSv
  studyid: ABC1
  usubjid: ABC1-102-14
  visitnum: 1
  visit: SCREENING
  visitdy: 14
  svstdtc: 2014-08-04
  svendtc: 2014-08-04
  svstdy: -13
  svendy: -13
- !ruby/object:SdtmSv
  studyid: ABC1
  usubjid: ABC1-102-14
  visitnum: 2
  visit: BASELINE
  visitdy: 14
  svstdtc: 2014-08-17
  svendtc: 2014-08-17
  svstdy: 0
  svendy: 0
- !ruby/object:SdtmSv
  studyid: ABC1
  usubjid: ABC1-102-14
  visitnum: 3
  visit: VISIT 2
  visitdy: 14
  svstdtc: 2014-08-24
  svendtc: 2014-08-24
  svstdy: 7
  svendy: 7
ABC1-103-02:
- !ruby/object:SdtmSv
  studyid: ABC1
  usubjid: ABC1-103-02
  visitnum: 1
  visit: SCREENING
  visitdy: 14
  svstdtc: 2014-03-31
  svendtc: 2014-03-31
  svstdy: -13
  svendy: -13
- !ruby/object:SdtmSv
  studyid: ABC1
  usubjid: ABC1-103-02
  visitnum: 2
  visit: BASELINE
  visitdy: 14
  svstdtc: 2014-04-13
  svendtc: 2014-04-13
  svstdy: 0
  svendy: 0
- !ruby/object:SdtmSv
  studyid: ABC1
  usubjid: ABC1-103-02
  visitnum: 3
  visit: VISIT 2
  visitdy: 14
  svstdtc: 2014-04-20
  svendtc: 2014-04-20
  svstdy: 7
  svendy: 7
- !ruby/object:SdtmSv
  studyid: ABC1
  usubjid: ABC1-103-02
  visitnum: 4
  visit: VISIT 3
  visitdy: 14
  svstdtc: 2014-04-27
  svendtc: 2014-04-27
  svstdy: 14
  svendy: 14
- !ruby/object:SdtmSv
  studyid: ABC1
  usubjid: ABC1-103-02
  visitnum: 5
  visit: VISIT 4
  visitdy: 14
  svstdtc: 2014-05-05
  svendtc: 2014-05-05
  svstdy: 22
  svendy: 22
- !ruby/object:SdtmSv
  studyid: ABC1
  usubjid: ABC1-103-02
  visitnum: 6
  visit: VISIT 5
  visitdy: 14
  svstdtc: 2014-05-12
  svendtc: 2014-05-12
  svstdy: 29
  svendy: 29
ABC1-103-03:
- !ruby/object:SdtmSv
  studyid: ABC1
  usubjid: ABC1-103-03
  visitnum: 1
  visit: SCREENING
  visitdy: 14
  svstdtc: 2014-06-24
  svendtc: 2014-06-24
  svstdy: -14
  svendy: -14
- !ruby/object:SdtmSv
  studyid: ABC1
  usubjid: ABC1-103-03
  visitnum: 2
  visit: BASELINE
  visitdy: 14
  svstdtc: 2014-07-08
  svendtc: 2014-07-08
  svstdy: 0
  svendy: 0
ABC1-103-05:
- !ruby/object:SdtmSv
  studyid: ABC1
  usubjid: ABC1-103-05
  visitnum: 1
  visit: SCREENING
  visitdy: 14
  svstdtc: 2014-02-27
  svendtc: 2014-02-27
  svstdy: -14
  svendy: -14
- !ruby/object:SdtmSv
  studyid: ABC1
  usubjid: ABC1-103-05
  visitnum: 2
  visit: BASELINE
  visitdy: 14
  svstdtc: 2014-03-13
  svendtc: 2014-03-13
  svstdy: 0
  svendy: 0
- !ruby/object:SdtmSv
  studyid: ABC1
  usubjid: ABC1-103-05
  visitnum: 3
  visit: VISIT 2
  visitdy: 14
  svstdtc: 2014-03-18
  svendtc: 2014-03-18
  svstdy: 5
  svendy: 5
ABC1-201-01:
- !ruby/object:SdtmSv
  studyid: ABC1
  usubjid: ABC1-201-01
  visitnum: 1
  visit: SCREENING
  visitdy: 14
  svstdtc: 2014-05-07
  svendtc: 2014-05-07
  svstdy: -15
  svendy: -15
- !ruby/object:SdtmSv
  studyid: ABC1
  usubjid: ABC1-201-01
  visitnum: 2
  visit: BASELINE
  visitdy: 14
  svstdtc: 2014-05-22
  svendtc: 2014-05-22
  svstdy: 0
  svendy: 0
- !ruby/object:SdtmSv
  studyid: ABC1
  usubjid: ABC1-201-01
  visitnum: 3
  visit: VISIT 2
  visitdy: 14
  svstdtc: 2014-05-29
  svendtc: 2014-05-29
  svstdy: 7
  svendy: 7
- !ruby/object:SdtmSv
  studyid: ABC1
  usubjid: ABC1-201-01
  visitnum: 4
  visit: VISIT 3
  visitdy: 14
  svstdtc: 2014-06-05
  svendtc: 2014-06-05
  svstdy: 14
  svendy: 14
- !ruby/object:SdtmSv
  studyid: ABC1
  usubjid: ABC1-201-01
  visitnum: 5
  visit: VISIT 4
  visitdy: 14
  svstdtc: 2014-06-12
  svendtc: 2014-06-12
  svstdy: 21
  svendy: 21
- !ruby/object:SdtmSv
  studyid: ABC1
  usubjid: ABC1-201-01
  visitnum: 6
  visit: VISIT 5
  visitdy: 14
  svstdtc: 2014-06-17
  svendtc: 2014-06-17
  svstdy: 26
  svendy: 26
- !ruby/object:SdtmSv
  studyid: ABC1
  usubjid: ABC1-201-01
  visitnum: 7
  visit: VISIT 6
  visitdy: 14
  svstdtc: 2014-06-24
  svendtc: 2014-06-24
  svstdy: 33
  svendy: 33
ABC1-201-02:
- !ruby/object:SdtmSv
  studyid: ABC1
  usubjid: ABC1-201-02
  visitnum: 1
  visit: SCREENING
  visitdy: 14
  svstdtc: 2014-10-20
  svendtc: 2014-10-20
  svstdy: -12
  svendy: -12
- !ruby/object:SdtmSv
  studyid: ABC1
  usubjid: ABC1-201-02
  visitnum: 2
  visit: BASELINE
  visitdy: 14
  svstdtc: 2014-11-01
  svendtc: 2014-11-01
  svstdy: 0
  svendy: 0
- !ruby/object:SdtmSv
  studyid: ABC1
  usubjid: ABC1-201-02
  visitnum: 3
  visit: VISIT 2
  visitdy: 14
  svstdtc: 2014-11-07
  svendtc: 2014-11-07
  svstdy: 6
  svendy: 6
- !ruby/object:SdtmSv
  studyid: ABC1
  usubjid: ABC1-201-02
  visitnum: 4
  visit: VISIT 3
  visitdy: 14
  svstdtc: 2014-11-14
  svendtc: 2014-11-14
  svstdy: 13
  svendy: 13
ABC1-201-04:
- !ruby/object:SdtmSv
  studyid: ABC1
  usubjid: ABC1-201-04
  visitnum: 1
  visit: SCREENING
  visitdy: 14
  svstdtc: 2014-02-15
  svendtc: 2014-02-15
  svstdy: -15
  svendy: -15
- !ruby/object:SdtmSv
  studyid: ABC1
  usubjid: ABC1-201-04
  visitnum: 2
  visit: BASELINE
  visitdy: 14
  svstdtc: 2014-03-02
  svendtc: 2014-03-02
  svstdy: 0
  svendy: 0
- !ruby/object:SdtmSv
  studyid: ABC1
  usubjid: ABC1-201-04
  visitnum: 3
  visit: VISIT 2
  visitdy: 14
  svstdtc: 2014-03-08
  svendtc: 2014-03-08
  svstdy: 6
  svendy: 6
- !ruby/object:SdtmSv
  studyid: ABC1
  usubjid: ABC1-201-04
  visitnum: 4
  visit: VISIT 3
  visitdy: 14
  svstdtc: 2014-03-16
  svendtc: 2014-03-16
  svstdy: 14
  svendy: 14
- !ruby/object:SdtmSv
  studyid: ABC1
  usubjid: ABC1-201-04
  visitnum: 5
  visit: VISIT 4
  visitdy: 14
  svstdtc: 2014-03-24
  svendtc: 2014-03-24
  svstdy: 22
  svendy: 22
- !ruby/object:SdtmSv
  studyid: ABC1
  usubjid: ABC1-201-04
  visitnum: 6
  visit: VISIT 5
  visitdy: 14
  svstdtc: 2014-03-31
  svendtc: 2014-03-31
  svstdy: 29
  svendy: 29
- !ruby/object:SdtmSv
  studyid: ABC1
  usubjid: ABC1-201-04
  visitnum: 7
  visit: VISIT 6
  visitdy: 14
  svstdtc: 2014-04-05
  svendtc: 2014-04-05
  svstdy: 34
  svendy: 34
ABC1-201-05:
- !ruby/object:SdtmSv
  studyid: ABC1
  usubjid: ABC1-201-05
  visitnum: 1
  visit: SCREENING
  visitdy: 14
  svstdtc: 2014-03-21
  svendtc: 2014-03-21
  svstdy: -14
  svendy: -14
- !ruby/object:SdtmSv
  studyid: ABC1
  usubjid: ABC1-201-05
  visitnum: 2
  visit: BASELINE
  visitdy: 14
  svstdtc: 2014-04-04
  svendtc: 2014-04-04
  svstdy: 0
  svendy: 0
- !ruby/object:SdtmSv
  studyid: ABC1
  usubjid: ABC1-201-05
  visitnum: 3
  visit: VISIT 2
  visitdy: 14
  svstdtc: 2014-04-11
  svendtc: 2014-04-11
  svstdy: 7
  svendy: 7
- !ruby/object:SdtmSv
  studyid: ABC1
  usubjid: ABC1-201-05
  visitnum: 4
  visit: VISIT 3
  visitdy: 14
  svstdtc: 2014-04-18
  svendtc: 2014-04-18
  svstdy: 14
  svendy: 14
- !ruby/object:SdtmSv
  studyid: ABC1
  usubjid: ABC1-201-05
  visitnum: 5
  visit: VISIT 4
  visitdy: 14
  svstdtc: 2014-04-25
  svendtc: 2014-04-25
  svstdy: 21
  svendy: 21
- !ruby/object:SdtmSv
  studyid: ABC1
  usubjid: ABC1-201-05
  visitnum: 6
  visit: VISIT 5
  visitdy: 14
  svstdtc: 2014-04-30
  svendtc: 2014-04-30
  svstdy: 26
  svendy: 26
ABC1-201-06:
- !ruby/object:SdtmSv
  studyid: ABC1
  usubjid: ABC1-201-06
  visitnum: 1
  visit: SCREENING
  visitdy: 14
  svstdtc: 2014-08-20
  svendtc: 2014-08-20
  svstdy: -15
  svendy: -15
- !ruby/object:SdtmSv
  studyid: ABC1
  usubjid: ABC1-201-06
  visitnum: 2
  visit: BASELINE
  visitdy: 14
  svstdtc: 2014-09-04
  svendtc: 2014-09-04
  svstdy: 0
  svendy: 0
ABC1-201-07:
- !ruby/object:SdtmSv
  studyid: ABC1
  usubjid: ABC1-201-07
  visitnum: 1
  visit: SCREENING
  visitdy: 14
  svstdtc: 2014-07-31
  svendtc: 2014-07-31
  svstdy: -11
  svendy: -11
- !ruby/object:SdtmSv
  studyid: ABC1
  usubjid: ABC1-201-07
  visitnum: 2
  visit: BASELINE
  visitdy: 14
  svstdtc: 2014-08-11
  svendtc: 2014-08-11
  svstdy: 0
  svendy: 0
- !ruby/object:SdtmSv
  studyid: ABC1
  usubjid: ABC1-201-07
  visitnum: 3
  visit: VISIT 2
  visitdy: 14
  svstdtc: 2014-08-18
  svendtc: 2014-08-18
  svstdy: 7
  svendy: 7
- !ruby/object:SdtmSv
  studyid: ABC1
  usubjid: ABC1-201-07
  visitnum: 4
  visit: VISIT 3
  visitdy: 14
  svstdtc: 2014-08-25
  svendtc: 2014-08-25
  svstdy: 14
  svendy: 14
- !ruby/object:SdtmSv
  studyid: ABC1
  usubjid: ABC1-201-07
  visitnum: 5
  visit: VISIT 4
  visitdy: 14
  svstdtc: 2014-09-02
  svendtc: 2014-09-02
  svstdy: 22
  svendy: 22
- !ruby/object:SdtmSv
  studyid: ABC1
  usubjid: ABC1-201-07
  visitnum: 6
  visit: VISIT 5
  visitdy: 14
  svstdtc: 2014-09-09
  svendtc: 2014-09-09
  svstdy: 29
  svendy: 29
ABC1-201-08:
- !ruby/object:SdtmSv
  studyid: ABC1
  usubjid: ABC1-201-08
  visitnum: 1
  visit: SCREENING
  visitdy: 14
  svstdtc: 2014-04-23
  svendtc: 2014-04-23
  svstdy: -14
  svendy: -14
- !ruby/object:SdtmSv
  studyid: ABC1
  usubjid: ABC1-201-08
  visitnum: 2
  visit: BASELINE
  visitdy: 14
  svstdtc: 2014-05-07
  svendtc: 2014-05-07
  svstdy: 0
  svendy: 0
- !ruby/object:SdtmSv
  studyid: ABC1
  usubjid: ABC1-201-08
  visitnum: 3
  visit: VISIT 2
  visitdy: 14
  svstdtc: 2014-05-14
  svendtc: 2014-05-14
  svstdy: 7
  svendy: 7
- !ruby/object:SdtmSv
  studyid: ABC1
  usubjid: ABC1-201-08
  visitnum: 4
  visit: VISIT 3
  visitdy: 14
  svstdtc: 2014-05-22
  svendtc: 2014-05-22
  svstdy: 15
  svendy: 15
- !ruby/object:SdtmSv
  studyid: ABC1
  usubjid: ABC1-201-08
  visitnum: 5
  visit: VISIT 4
  visitdy: 14
  svstdtc: 2014-05-28
  svendtc: 2014-05-28
  svstdy: 21
  svendy: 21
- !ruby/object:SdtmSv
  studyid: ABC1
  usubjid: ABC1-201-08
  visitnum: 6
  visit: VISIT 5
  visitdy: 14
  svstdtc: 2014-06-03
  svendtc: 2014-06-03
  svstdy: 27
  svendy: 27
- !ruby/object:SdtmSv
  studyid: ABC1
  usubjid: ABC1-201-08
  visitnum: 7
  visit: VISIT 6
  visitdy: 14
  svstdtc: 2014-06-09
  svendtc: 2014-06-09
  svstdy: 33
  svendy: 33
ABC1-201-09:
- !ruby/object:SdtmSv
  studyid: ABC1
  usubjid: ABC1-201-09
  visitnum: 1
  visit: SCREENING
  visitdy: 14
  svstdtc: 2014-07-08
  svendtc: 2014-07-08
  svstdy: -13
  svendy: -13
- !ruby/object:SdtmSv
  studyid: ABC1
  usubjid: ABC1-201-09
  visitnum: 2
  visit: BASELINE
  visitdy: 14
  svstdtc: 2014-07-21
  svendtc: 2014-07-21
  svstdy: 0
  svendy: 0
- !ruby/object:SdtmSv
  studyid: ABC1
  usubjid: ABC1-201-09
  visitnum: 3
  visit: VISIT 2
  visitdy: 14
  svstdtc: 2014-07-28
  svendtc: 2014-07-28
  svstdy: 7
  svendy: 7
ABC1-201-10:
- !ruby/object:SdtmSv
  studyid: ABC1
  usubjid: ABC1-201-10
  visitnum: 1
  visit: SCREENING
  visitdy: 14
  svstdtc: 2014-11-21
  svendtc: 2014-11-21
  svstdy: -14
  svendy: -14
- !ruby/object:SdtmSv
  studyid: ABC1
  usubjid: ABC1-201-10
  visitnum: 2
  visit: BASELINE
  visitdy: 14
  svstdtc: 2014-12-05
  svendtc: 2014-12-05
  svstdy: 0
  svendy: 0
- !ruby/object:SdtmSv
  studyid: ABC1
  usubjid: ABC1-201-10
  visitnum: 3
  visit: VISIT 2
  visitdy: 14
  svstdtc: 2014-12-12
  svendtc: 2014-12-12
  svstdy: 7
  svendy: 7
- !ruby/object:SdtmSv
  studyid: ABC1
  usubjid: ABC1-201-10
  visitnum: 4
  visit: VISIT 3
  visitdy: 14
  svstdtc: 2014-12-18
  svendtc: 2014-12-18
  svstdy: 13
  svendy: 13
- !ruby/object:SdtmSv
  studyid: ABC1
  usubjid: ABC1-201-10
  visitnum: 5
  visit: VISIT 4
  visitdy: 14
  svstdtc: 2014-12-24
  svendtc: 2014-12-24
  svstdy: 19
  svendy: 19
- !ruby/object:SdtmSv
  studyid: ABC1
  usubjid: ABC1-201-10
  visitnum: 6
  visit: VISIT 5
  visitdy: 14
  svstdtc: 2014-12-31
  svendtc: 2014-12-31
  svstdy: 26
  svendy: 26
- !ruby/object:SdtmSv
  studyid: ABC1
  usubjid: ABC1-201-10
  visitnum: 7
  visit: VISIT 6
  visitdy: 14
  svstdtc: 2015-01-06
  svendtc: 2015-01-06
  svstdy: 32
  svendy: 32
ABC1-201-11:
- !ruby/object:SdtmSv
  studyid: ABC1
  usubjid: ABC1-201-11
  visitnum: 1
  visit: SCREENING
  visitdy: 14
  svstdtc: 2014-07-08
  svendtc: 2014-07-08
  svstdy: -14
  svendy: -14
- !ruby/object:SdtmSv
  studyid: ABC1
  usubjid: ABC1-201-11
  visitnum: 2
  visit: BASELINE
  visitdy: 14
  svstdtc: 2014-07-22
  svendtc: 2014-07-22
  svstdy: 0
  svendy: 0
- !ruby/object:SdtmSv
  studyid: ABC1
  usubjid: ABC1-201-11
  visitnum: 3
  visit: VISIT 2
  visitdy: 14
  svstdtc: 2014-07-30
  svendtc: 2014-07-30
  svstdy: 8
  svendy: 8
- !ruby/object:SdtmSv
  studyid: ABC1
  usubjid: ABC1-201-11
  visitnum: 4
  visit: VISIT 3
  visitdy: 14
  svstdtc: 2014-08-06
  svendtc: 2014-08-06
  svstdy: 15
  svendy: 15
- !ruby/object:SdtmSv
  studyid: ABC1
  usubjid: ABC1-201-11
  visitnum: 5
  visit: VISIT 4
  visitdy: 14
  svstdtc: 2014-08-13
  svendtc: 2014-08-13
  svstdy: 22
  svendy: 22
- !ruby/object:SdtmSv
  studyid: ABC1
  usubjid: ABC1-201-11
  visitnum: 6
  visit: VISIT 5
  visitdy: 14
  svstdtc: 2014-08-20
  svendtc: 2014-08-20
  svstdy: 29
  svendy: 29
- !ruby/object:SdtmSv
  studyid: ABC1
  usubjid: ABC1-201-11
  visitnum: 7
  visit: VISIT 6
  visitdy: 14
  svstdtc: 2014-08-27
  svendtc: 2014-08-27
  svstdy: 36
  svendy: 36
ABC1-201-12:
- !ruby/object:SdtmSv
  studyid: ABC1
  usubjid: ABC1-201-12
  visitnum: 1
  visit: SCREENING
  visitdy: 14
  svstdtc: 2014-08-27
  svendtc: 2014-08-27
  svstdy: -12
  svendy: -12
- !ruby/object:SdtmSv
  studyid: ABC1
  usubjid: ABC1-201-12
  visitnum: 2
  visit: BASELINE
  visitdy: 14
  svstdtc: 2014-09-08
  svendtc: 2014-09-08
  svstdy: 0
  svendy: 0
- !ruby/object:SdtmSv
  studyid: ABC1
  usubjid: ABC1-201-12
  visitnum: 3
  visit: VISIT 2
  visitdy: 14
  svstdtc: 2014-09-15
  svendtc: 2014-09-15
  svstdy: 7
  svendy: 7
- !ruby/object:SdtmSv
  studyid: ABC1
  usubjid: ABC1-201-12
  visitnum: 4
  visit: VISIT 3
  visitdy: 14
  svstdtc: 2014-09-21
  svendtc: 2014-09-21
  svstdy: 13
  svendy: 13
- !ruby/object:SdtmSv
  studyid: ABC1
  usubjid: ABC1-201-12
  visitnum: 5
  visit: VISIT 4
  visitdy: 14
  svstdtc: 2014-09-28
  svendtc: 2014-09-28
  svstdy: 20
  svendy: 20
- !ruby/object:SdtmSv
  studyid: ABC1
  usubjid: ABC1-201-12
  visitnum: 6
  visit: VISIT 5
  visitdy: 14
  svstdtc: 2014-10-02
  svendtc: 2014-10-02
  svstdy: 24
  svendy: 24
- !ruby/object:SdtmSv
  studyid: ABC1
  usubjid: ABC1-201-12
  visitnum: 7
  visit: VISIT 6
  visitdy: 14
  svstdtc: 2014-10-09
  svendtc: 2014-10-09
  svstdy: 31
  svendy: 31
ABC1-201-14:
- !ruby/object:SdtmSv
  studyid: ABC1
  usubjid: ABC1-201-14
  visitnum: 1
  visit: SCREENING
  visitdy: 14
  svstdtc: 2014-10-19
  svendtc: 2014-10-19
  svstdy: -13
  svendy: -13
- !ruby/object:SdtmSv
  studyid: ABC1
  usubjid: ABC1-201-14
  visitnum: 2
  visit: BASELINE
  visitdy: 14
  svstdtc: 2014-11-01
  svendtc: 2014-11-01
  svstdy: 0
  svendy: 0
- !ruby/object:SdtmSv
  studyid: ABC1
  usubjid: ABC1-201-14
  visitnum: 3
  visit: VISIT 2
  visitdy: 14
  svstdtc: 2014-11-08
  svendtc: 2014-11-08
  svstdy: 7
  svendy: 7
- !ruby/object:SdtmSv
  studyid: ABC1
  usubjid: ABC1-201-14
  visitnum: 4
  visit: VISIT 3
  visitdy: 14
  svstdtc: 2014-11-15
  svendtc: 2014-11-15
  svstdy: 14
  svendy: 14
- !ruby/object:SdtmSv
  studyid: ABC1
  usubjid: ABC1-201-14
  visitnum: 5
  visit: VISIT 4
  visitdy: 14
  svstdtc: 2014-11-23
  svendtc: 2014-11-23
  svstdy: 22
  svendy: 22
- !ruby/object:SdtmSv
  studyid: ABC1
  usubjid: ABC1-201-14
  visitnum: 6
  visit: VISIT 5
  visitdy: 14
  svstdtc: 2014-11-30
  svendtc: 2014-11-30
  svstdy: 29
  svendy: 29
- !ruby/object:SdtmSv
  studyid: ABC1
  usubjid: ABC1-201-14
  visitnum: 7
  visit: VISIT 6
  visitdy: 14
  svstdtc: 2014-12-06
  svendtc: 2014-12-06
  svstdy: 35
  svendy: 35
ABC1-201-15:
- !ruby/object:SdtmSv
  studyid: ABC1
  usubjid: ABC1-201-15
  visitnum: 1
  visit: SCREENING
  visitdy: 14
  svstdtc: 2014-03-15
  svendtc: 2014-03-15
  svstdy: -14
  svendy: -14
- !ruby/object:SdtmSv
  studyid: ABC1
  usubjid: ABC1-201-15
  visitnum: 2
  visit: BASELINE
  visitdy: 14
  svstdtc: 2014-03-29
  svendtc: 2014-03-29
  svstdy: 0
  svendy: 0
- !ruby/object:SdtmSv
  studyid: ABC1
  usubjid: ABC1-201-15
  visitnum: 3
  visit: VISIT 2
  visitdy: 14
  svstdtc: 2014-04-03
  svendtc: 2014-04-03
  svstdy: 5
  svendy: 5
- !ruby/object:SdtmSv
  studyid: ABC1
  usubjid: ABC1-201-15
  visitnum: 4
  visit: VISIT 3
  visitdy: 14
  svstdtc: 2014-04-11
  svendtc: 2014-04-11
  svstdy: 13
  svendy: 13
- !ruby/object:SdtmSv
  studyid: ABC1
  usubjid: ABC1-201-15
  visitnum: 5
  visit: VISIT 4
  visitdy: 14
  svstdtc: 2014-04-17
  svendtc: 2014-04-17
  svstdy: 19
  svendy: 19
- !ruby/object:SdtmSv
  studyid: ABC1
  usubjid: ABC1-201-15
  visitnum: 6
  visit: VISIT 5
  visitdy: 14
  svstdtc: 2014-04-25
  svendtc: 2014-04-25
  svstdy: 27
  svendy: 27
- !ruby/object:SdtmSv
  studyid: ABC1
  usubjid: ABC1-201-15
  visitnum: 7
  visit: VISIT 6
  visitdy: 14
  svstdtc: 2014-05-02
  svendtc: 2014-05-02
  svstdy: 34
  svendy: 34
ABC1-201-16:
- !ruby/object:SdtmSv
  studyid: ABC1
  usubjid: ABC1-201-16
  visitnum: 1
  visit: SCREENING
  visitdy: 14
  svstdtc: 2014-04-14
  svendtc: 2014-04-14
  svstdy: -14
  svendy: -14
- !ruby/object:SdtmSv
  studyid: ABC1
  usubjid: ABC1-201-16
  visitnum: 2
  visit: BASELINE
  visitdy: 14
  svstdtc: 2014-04-28
  svendtc: 2014-04-28
  svstdy: 0
  svendy: 0
- !ruby/object:SdtmSv
  studyid: ABC1
  usubjid: ABC1-201-16
  visitnum: 3
  visit: VISIT 2
  visitdy: 14
  svstdtc: 2014-05-05
  svendtc: 2014-05-05
  svstdy: 7
  svendy: 7
- !ruby/object:SdtmSv
  studyid: ABC1
  usubjid: ABC1-201-16
  visitnum: 4
  visit: VISIT 3
  visitdy: 14
  svstdtc: 2014-05-12
  svendtc: 2014-05-12
  svstdy: 14
  svendy: 14
- !ruby/object:SdtmSv
  studyid: ABC1
  usubjid: ABC1-201-16
  visitnum: 5
  visit: VISIT 4
  visitdy: 14
  svstdtc: 2014-05-18
  svendtc: 2014-05-18
  svstdy: 20
  svendy: 20
- !ruby/object:SdtmSv
  studyid: ABC1
  usubjid: ABC1-201-16
  visitnum: 6
  visit: VISIT 5
  visitdy: 14
  svstdtc: 2014-05-24
  svendtc: 2014-05-24
  svstdy: 26
  svendy: 26
ABC1-201-17:
- !ruby/object:SdtmSv
  studyid: ABC1
  usubjid: ABC1-201-17
  visitnum: 1
  visit: SCREENING
  visitdy: 14
  svstdtc: 2014-03-31
  svendtc: 2014-03-31
  svstdy: -13
  svendy: -13
- !ruby/object:SdtmSv
  studyid: ABC1
  usubjid: ABC1-201-17
  visitnum: 2
  visit: BASELINE
  visitdy: 14
  svstdtc: 2014-04-13
  svendtc: 2014-04-13
  svstdy: 0
  svendy: 0
- !ruby/object:SdtmSv
  studyid: ABC1
  usubjid: ABC1-201-17
  visitnum: 3
  visit: VISIT 2
  visitdy: 14
  svstdtc: 2014-04-19
  svendtc: 2014-04-19
  svstdy: 6
  svendy: 6
- !ruby/object:SdtmSv
  studyid: ABC1
  usubjid: ABC1-201-17
  visitnum: 4
  visit: VISIT 3
  visitdy: 14
  svstdtc: 2014-04-26
  svendtc: 2014-04-26
  svstdy: 13
  svendy: 13
- !ruby/object:SdtmSv
  studyid: ABC1
  usubjid: ABC1-201-17
  visitnum: 5
  visit: VISIT 4
  visitdy: 14
  svstdtc: 2014-05-01
  svendtc: 2014-05-01
  svstdy: 18
  svendy: 18
ABC1-201-18:
- !ruby/object:SdtmSv
  studyid: ABC1
  usubjid: ABC1-201-18
  visitnum: 1
  visit: SCREENING
  visitdy: 14
  svstdtc: 2014-02-23
  svendtc: 2014-02-23
  svstdy: -14
  svendy: -14
- !ruby/object:SdtmSv
  studyid: ABC1
  usubjid: ABC1-201-18
  visitnum: 2
  visit: BASELINE
  visitdy: 14
  svstdtc: 2014-03-09
  svendtc: 2014-03-09
  svstdy: 0
  svendy: 0
- !ruby/object:SdtmSv
  studyid: ABC1
  usubjid: ABC1-201-18
  visitnum: 3
  visit: VISIT 2
  visitdy: 14
  svstdtc: 2014-03-16
  svendtc: 2014-03-16
  svstdy: 7
  svendy: 7
- !ruby/object:SdtmSv
  studyid: ABC1
  usubjid: ABC1-201-18
  visitnum: 4
  visit: VISIT 3
  visitdy: 14
  svstdtc: 2014-03-23
  svendtc: 2014-03-23
  svstdy: 14
  svendy: 14
- !ruby/object:SdtmSv
  studyid: ABC1
  usubjid: ABC1-201-18
  visitnum: 5
  visit: VISIT 4
  visitdy: 14
  svstdtc: 2014-03-31
  svendtc: 2014-03-31
  svstdy: 22
  svendy: 22
ABC1-201-19:
- !ruby/object:SdtmSv
  studyid: ABC1
  usubjid: ABC1-201-19
  visitnum: 1
  visit: SCREENING
  visitdy: 14
  svstdtc: 2014-10-01
  svendtc: 2014-10-01
  svstdy: -10
  svendy: -10
- !ruby/object:SdtmSv
  studyid: ABC1
  usubjid: ABC1-201-19
  visitnum: 2
  visit: BASELINE
  visitdy: 14
  svstdtc: 2014-10-11
  svendtc: 2014-10-11
  svstdy: 0
  svendy: 0
- !ruby/object:SdtmSv
  studyid: ABC1
  usubjid: ABC1-201-19
  visitnum: 3
  visit: VISIT 2
  visitdy: 14
  svstdtc: 2014-10-17
  svendtc: 2014-10-17
  svstdy: 6
  svendy: 6
ABC1-201-20:
- !ruby/object:SdtmSv
  studyid: ABC1
  usubjid: ABC1-201-20
  visitnum: 1
  visit: SCREENING
  visitdy: 14
  svstdtc: 2014-09-13
  svendtc: 2014-09-13
  svstdy: -14
  svendy: -14
- !ruby/object:SdtmSv
  studyid: ABC1
  usubjid: ABC1-201-20
  visitnum: 2
  visit: BASELINE
  visitdy: 14
  svstdtc: 2014-09-27
  svendtc: 2014-09-27
  svstdy: 0
  svendy: 0
- !ruby/object:SdtmSv
  studyid: ABC1
  usubjid: ABC1-201-20
  visitnum: 3
  visit: VISIT 2
  visitdy: 14
  svstdtc: 2014-10-04
  svendtc: 2014-10-04
  svstdy: 7
  svendy: 7
- !ruby/object:SdtmSv
  studyid: ABC1
  usubjid: ABC1-201-20
  visitnum: 4
  visit: VISIT 3
  visitdy: 14
  svstdtc: 2014-10-11
  svendtc: 2014-10-11
  svstdy: 14
  svendy: 14
- !ruby/object:SdtmSv
  studyid: ABC1
  usubjid: ABC1-201-20
  visitnum: 5
  visit: VISIT 4
  visitdy: 14
  svstdtc: 2014-10-18
  svendtc: 2014-10-18
  svstdy: 21
  svendy: 21
- !ruby/object:SdtmSv
  studyid: ABC1
  usubjid: ABC1-201-20
  visitnum: 6
  visit: VISIT 5
  visitdy: 14
  svstdtc: 2014-10-24
  svendtc: 2014-10-24
  svstdy: 27
  svendy: 27
- !ruby/object:SdtmSv
  studyid: ABC1
  usubjid: ABC1-201-20
  visitnum: 7
  visit: VISIT 6
  visitdy: 14
  svstdtc: 2014-10-30
  svendtc: 2014-10-30
  svstdy: 33
  svendy: 33
ABC1-202-01:
- !ruby/object:SdtmSv
  studyid: ABC1
  usubjid: ABC1-202-01
  visitnum: 1
  visit: SCREENING
  visitdy: 14
  svstdtc: 2014-05-11
  svendtc: 2014-05-11
  svstdy: -13
  svendy: -13
- !ruby/object:SdtmSv
  studyid: ABC1
  usubjid: ABC1-202-01
  visitnum: 2
  visit: BASELINE
  visitdy: 14
  svstdtc: 2014-05-24
  svendtc: 2014-05-24
  svstdy: 0
  svendy: 0
- !ruby/object:SdtmSv
  studyid: ABC1
  usubjid: ABC1-202-01
  visitnum: 3
  visit: VISIT 2
  visitdy: 14
  svstdtc: 2014-05-30
  svendtc: 2014-05-30
  svstdy: 6
  svendy: 6
ABC1-202-02:
- !ruby/object:SdtmSv
  studyid: ABC1
  usubjid: ABC1-202-02
  visitnum: 1
  visit: SCREENING
  visitdy: 14
  svstdtc: 2014-07-29
  svendtc: 2014-07-29
  svstdy: -15
  svendy: -15
- !ruby/object:SdtmSv
  studyid: ABC1
  usubjid: ABC1-202-02
  visitnum: 2
  visit: BASELINE
  visitdy: 14
  svstdtc: 2014-08-13
  svendtc: 2014-08-13
  svstdy: 0
  svendy: 0
- !ruby/object:SdtmSv
  studyid: ABC1
  usubjid: ABC1-202-02
  visitnum: 3
  visit: VISIT 2
  visitdy: 14
  svstdtc: 2014-08-21
  svendtc: 2014-08-21
  svstdy: 8
  svendy: 8
- !ruby/object:SdtmSv
  studyid: ABC1
  usubjid: ABC1-202-02
  visitnum: 4
  visit: VISIT 3
  visitdy: 14
  svstdtc: 2014-08-28
  svendtc: 2014-08-28
  svstdy: 15
  svendy: 15
- !ruby/object:SdtmSv
  studyid: ABC1
  usubjid: ABC1-202-02
  visitnum: 5
  visit: VISIT 4
  visitdy: 14
  svstdtc: 2014-09-02
  svendtc: 2014-09-02
  svstdy: 20
  svendy: 20
ABC1-202-03:
- !ruby/object:SdtmSv
  studyid: ABC1
  usubjid: ABC1-202-03
  visitnum: 1
  visit: SCREENING
  visitdy: 14
  svstdtc: 2014-07-24
  svendtc: 2014-07-24
  svstdy: -14
  svendy: -14
- !ruby/object:SdtmSv
  studyid: ABC1
  usubjid: ABC1-202-03
  visitnum: 2
  visit: BASELINE
  visitdy: 14
  svstdtc: 2014-08-07
  svendtc: 2014-08-07
  svstdy: 0
  svendy: 0
- !ruby/object:SdtmSv
  studyid: ABC1
  usubjid: ABC1-202-03
  visitnum: 3
  visit: VISIT 2
  visitdy: 14
  svstdtc: 2014-08-14
  svendtc: 2014-08-14
  svstdy: 7
  svendy: 7
- !ruby/object:SdtmSv
  studyid: ABC1
  usubjid: ABC1-202-03
  visitnum: 4
  visit: VISIT 3
  visitdy: 14
  svstdtc: 2014-08-21
  svendtc: 2014-08-21
  svstdy: 14
  svendy: 14
- !ruby/object:SdtmSv
  studyid: ABC1
  usubjid: ABC1-202-03
  visitnum: 5
  visit: VISIT 4
  visitdy: 14
  svstdtc: 2014-08-28
  svendtc: 2014-08-28
  svstdy: 21
  svendy: 21
ABC1-202-04:
- !ruby/object:SdtmSv
  studyid: ABC1
  usubjid: ABC1-202-04
  visitnum: 1
  visit: SCREENING
  visitdy: 14
  svstdtc: 2014-05-22
  svendtc: 2014-05-22
  svstdy: -13
  svendy: -13
- !ruby/object:SdtmSv
  studyid: ABC1
  usubjid: ABC1-202-04
  visitnum: 2
  visit: BASELINE
  visitdy: 14
  svstdtc: 2014-06-04
  svendtc: 2014-06-04
  svstdy: 0
  svendy: 0
- !ruby/object:SdtmSv
  studyid: ABC1
  usubjid: ABC1-202-04
  visitnum: 3
  visit: VISIT 2
  visitdy: 14
  svstdtc: 2014-06-10
  svendtc: 2014-06-10
  svstdy: 6
  svendy: 6
- !ruby/object:SdtmSv
  studyid: ABC1
  usubjid: ABC1-202-04
  visitnum: 4
  visit: VISIT 3
  visitdy: 14
  svstdtc: 2014-06-17
  svendtc: 2014-06-17
  svstdy: 13
  svendy: 13
- !ruby/object:SdtmSv
  studyid: ABC1
  usubjid: ABC1-202-04
  visitnum: 5
  visit: VISIT 4
  visitdy: 14
  svstdtc: 2014-06-23
  svendtc: 2014-06-23
  svstdy: 19
  svendy: 19
- !ruby/object:SdtmSv
  studyid: ABC1
  usubjid: ABC1-202-04
  visitnum: 6
  visit: VISIT 5
  visitdy: 14
  svstdtc: 2014-06-30
  svendtc: 2014-06-30
  svstdy: 26
  svendy: 26
- !ruby/object:SdtmSv
  studyid: ABC1
  usubjid: ABC1-202-04
  visitnum: 7
  visit: VISIT 6
  visitdy: 14
  svstdtc: 2014-07-07
  svendtc: 2014-07-07
  svstdy: 33
  svendy: 33
ABC1-202-05:
- !ruby/object:SdtmSv
  studyid: ABC1
  usubjid: ABC1-202-05
  visitnum: 1
  visit: SCREENING
  visitdy: 14
  svstdtc: 2014-03-02
  svendtc: 2014-03-02
  svstdy: -15
  svendy: -15
- !ruby/object:SdtmSv
  studyid: ABC1
  usubjid: ABC1-202-05
  visitnum: 2
  visit: BASELINE
  visitdy: 14
  svstdtc: 2014-03-17
  svendtc: 2014-03-17
  svstdy: 0
  svendy: 0
- !ruby/object:SdtmSv
  studyid: ABC1
  usubjid: ABC1-202-05
  visitnum: 3
  visit: VISIT 2
  visitdy: 14
  svstdtc: 2014-03-25
  svendtc: 2014-03-25
  svstdy: 8
  svendy: 8
- !ruby/object:SdtmSv
  studyid: ABC1
  usubjid: ABC1-202-05
  visitnum: 4
  visit: VISIT 3
  visitdy: 14
  svstdtc: 2014-03-30
  svendtc: 2014-03-30
  svstdy: 13
  svendy: 13
ABC1-202-06:
- !ruby/object:SdtmSv
  studyid: ABC1
  usubjid: ABC1-202-06
  visitnum: 1
  visit: SCREENING
  visitdy: 14
  svstdtc: 2014-02-17
  svendtc: 2014-02-17
  svstdy: -12
  svendy: -12
- !ruby/object:SdtmSv
  studyid: ABC1
  usubjid: ABC1-202-06
  visitnum: 2
  visit: BASELINE
  visitdy: 14
  svstdtc: 2014-03-01
  svendtc: 2014-03-01
  svstdy: 0
  svendy: 0
- !ruby/object:SdtmSv
  studyid: ABC1
  usubjid: ABC1-202-06
  visitnum: 3
  visit: VISIT 2
  visitdy: 14
  svstdtc: 2014-03-08
  svendtc: 2014-03-08
  svstdy: 7
  svendy: 7
- !ruby/object:SdtmSv
  studyid: ABC1
  usubjid: ABC1-202-06
  visitnum: 4
  visit: VISIT 3
  visitdy: 14
  svstdtc: 2014-03-15
  svendtc: 2014-03-15
  svstdy: 14
  svendy: 14
ABC1-202-07:
- !ruby/object:SdtmSv
  studyid: ABC1
  usubjid: ABC1-202-07
  visitnum: 1
  visit: SCREENING
  visitdy: 14
  svstdtc: 2014-04-26
  svendtc: 2014-04-26
  svstdy: -15
  svendy: -15
- !ruby/object:SdtmSv
  studyid: ABC1
  usubjid: ABC1-202-07
  visitnum: 2
  visit: BASELINE
  visitdy: 14
  svstdtc: 2014-05-11
  svendtc: 2014-05-11
  svstdy: 0
  svendy: 0
- !ruby/object:SdtmSv
  studyid: ABC1
  usubjid: ABC1-202-07
  visitnum: 3
  visit: VISIT 2
  visitdy: 14
  svstdtc: 2014-05-17
  svendtc: 2014-05-17
  svstdy: 6
  svendy: 6
- !ruby/object:SdtmSv
  studyid: ABC1
  usubjid: ABC1-202-07
  visitnum: 4
  visit: VISIT 3
  visitdy: 14
  svstdtc: 2014-05-25
  svendtc: 2014-05-25
  svstdy: 14
  svendy: 14
- !ruby/object:SdtmSv
  studyid: ABC1
  usubjid: ABC1-202-07
  visitnum: 5
  visit: VISIT 4
  visitdy: 14
  svstdtc: 2014-06-01
  svendtc: 2014-06-01
  svstdy: 21
  svendy: 21
- !ruby/object:SdtmSv
  studyid: ABC1
  usubjid: ABC1-202-07
  visitnum: 6
  visit: VISIT 5
  visitdy: 14
  svstdtc: 2014-06-07
  svendtc: 2014-06-07
  svstdy: 27
  svendy: 27
- !ruby/object:SdtmSv
  studyid: ABC1
  usubjid: ABC1-202-07
  visitnum: 7
  visit: VISIT 6
  visitdy: 14
  svstdtc: 2014-06-14
  svendtc: 2014-06-14
  svstdy: 34
  svendy: 34
ABC1-202-08:
- !ruby/object:SdtmSv
  studyid: ABC1
  usubjid: ABC1-202-08
  visitnum: 1
  visit: SCREENING
  visitdy: 14
  svstdtc: 2014-04-13
  svendtc: 2014-04-13
  svstdy: -12
  svendy: -12
- !ruby/object:SdtmSv
  studyid: ABC1
  usubjid: ABC1-202-08
  visitnum: 2
  visit: BASELINE
  visitdy: 14
  svstdtc: 2014-04-25
  svendtc: 2014-04-25
  svstdy: 0
  svendy: 0
- !ruby/object:SdtmSv
  studyid: ABC1
  usubjid: ABC1-202-08
  visitnum: 3
  visit: VISIT 2
  visitdy: 14
  svstdtc: 2014-05-02
  svendtc: 2014-05-02
  svstdy: 7
  svendy: 7
- !ruby/object:SdtmSv
  studyid: ABC1
  usubjid: ABC1-202-08
  visitnum: 4
  visit: VISIT 3
  visitdy: 14
  svstdtc: 2014-05-08
  svendtc: 2014-05-08
  svstdy: 13
  svendy: 13
- !ruby/object:SdtmSv
  studyid: ABC1
  usubjid: ABC1-202-08
  visitnum: 5
  visit: VISIT 4
  visitdy: 14
  svstdtc: 2014-05-13
  svendtc: 2014-05-13
  svstdy: 18
  svendy: 18
- !ruby/object:SdtmSv
  studyid: ABC1
  usubjid: ABC1-202-08
  visitnum: 6
  visit: VISIT 5
  visitdy: 14
  svstdtc: 2014-05-20
  svendtc: 2014-05-20
  svstdy: 25
  svendy: 25
- !ruby/object:SdtmSv
  studyid: ABC1
  usubjid: ABC1-202-08
  visitnum: 7
  visit: VISIT 6
  visitdy: 14
  svstdtc: 2014-05-25
  svendtc: 2014-05-25
  svstdy: 30
  svendy: 30
ABC1-202-09:
- !ruby/object:SdtmSv
  studyid: ABC1
  usubjid: ABC1-202-09
  visitnum: 1
  visit: SCREENING
  visitdy: 14
  svstdtc: 2014-06-23
  svendtc: 2014-06-23
  svstdy: -14
  svendy: -14
- !ruby/object:SdtmSv
  studyid: ABC1
  usubjid: ABC1-202-09
  visitnum: 2
  visit: BASELINE
  visitdy: 14
  svstdtc: 2014-07-07
  svendtc: 2014-07-07
  svstdy: 0
  svendy: 0
- !ruby/object:SdtmSv
  studyid: ABC1
  usubjid: ABC1-202-09
  visitnum: 3
  visit: VISIT 2
  visitdy: 14
  svstdtc: 2014-07-12
  svendtc: 2014-07-12
  svstdy: 5
  svendy: 5
- !ruby/object:SdtmSv
  studyid: ABC1
  usubjid: ABC1-202-09
  visitnum: 4
  visit: VISIT 3
  visitdy: 14
  svstdtc: 2014-07-18
  svendtc: 2014-07-18
  svstdy: 11
  svendy: 11
- !ruby/object:SdtmSv
  studyid: ABC1
  usubjid: ABC1-202-09
  visitnum: 5
  visit: VISIT 4
  visitdy: 14
  svstdtc: 2014-07-25
  svendtc: 2014-07-25
  svstdy: 18
  svendy: 18
- !ruby/object:SdtmSv
  studyid: ABC1
  usubjid: ABC1-202-09
  visitnum: 6
  visit: VISIT 5
  visitdy: 14
  svstdtc: 2014-07-30
  svendtc: 2014-07-30
  svstdy: 23
  svendy: 23
- !ruby/object:SdtmSv
  studyid: ABC1
  usubjid: ABC1-202-09
  visitnum: 7
  visit: VISIT 6
  visitdy: 14
  svstdtc: 2014-08-05
  svendtc: 2014-08-05
  svstdy: 29
  svendy: 29
ABC1-202-10:
- !ruby/object:SdtmSv
  studyid: ABC1
  usubjid: ABC1-202-10
  visitnum: 1
  visit: SCREENING
  visitdy: 14
  svstdtc: 2014-08-08
  svendtc: 2014-08-08
  svstdy: -14
  svendy: -14
- !ruby/object:SdtmSv
  studyid: ABC1
  usubjid: ABC1-202-10
  visitnum: 2
  visit: BASELINE
  visitdy: 14
  svstdtc: 2014-08-22
  svendtc: 2014-08-22
  svstdy: 0
  svendy: 0
- !ruby/object:SdtmSv
  studyid: ABC1
  usubjid: ABC1-202-10
  visitnum: 3
  visit: VISIT 2
  visitdy: 14
  svstdtc: 2014-08-28
  svendtc: 2014-08-28
  svstdy: 6
  svendy: 6
- !ruby/object:SdtmSv
  studyid: ABC1
  usubjid: ABC1-202-10
  visitnum: 4
  visit: VISIT 3
  visitdy: 14
  svstdtc: 2014-09-01
  svendtc: 2014-09-01
  svstdy: 10
  svendy: 10
- !ruby/object:SdtmSv
  studyid: ABC1
  usubjid: ABC1-202-10
  visitnum: 5
  visit: VISIT 4
  visitdy: 14
  svstdtc: 2014-09-08
  svendtc: 2014-09-08
  svstdy: 17
  svendy: 17
- !ruby/object:SdtmSv
  studyid: ABC1
  usubjid: ABC1-202-10
  visitnum: 6
  visit: VISIT 5
  visitdy: 14
  svstdtc: 2014-09-14
  svendtc: 2014-09-14
  svstdy: 23
  svendy: 23
- !ruby/object:SdtmSv
  studyid: ABC1
  usubjid: ABC1-202-10
  visitnum: 7
  visit: VISIT 6
  visitdy: 14
  svstdtc: 2014-09-20
  svendtc: 2014-09-20
  svstdy: 29
  svendy: 29
ABC1-202-11:
- !ruby/object:SdtmSv
  studyid: ABC1
  usubjid: ABC1-202-11
  visitnum: 1
  visit: SCREENING
  visitdy: 14
  svstdtc: 2014-04-09
  svendtc: 2014-04-09
  svstdy: -14
  svendy: -14
- !ruby/object:SdtmSv
  studyid: ABC1
  usubjid: ABC1-202-11
  visitnum: 2
  visit: BASELINE
  visitdy: 14
  svstdtc: 2014-04-23
  svendtc: 2014-04-23
  svstdy: 0
  svendy: 0
- !ruby/object:SdtmSv
  studyid: ABC1
  usubjid: ABC1-202-11
  visitnum: 3
  visit: VISIT 2
  visitdy: 14
  svstdtc: 2014-04-30
  svendtc: 2014-04-30
  svstdy: 7
  svendy: 7
- !ruby/object:SdtmSv
  studyid: ABC1
  usubjid: ABC1-202-11
  visitnum: 4
  visit: VISIT 3
  visitdy: 14
  svstdtc: 2014-05-07
  svendtc: 2014-05-07
  svstdy: 14
  svendy: 14
- !ruby/object:SdtmSv
  studyid: ABC1
  usubjid: ABC1-202-11
  visitnum: 5
  visit: VISIT 4
  visitdy: 14
  svstdtc: 2014-05-15
  svendtc: 2014-05-15
  svstdy: 22
  svendy: 22
- !ruby/object:SdtmSv
  studyid: ABC1
  usubjid: ABC1-202-11
  visitnum: 6
  visit: VISIT 5
  visitdy: 14
  svstdtc: 2014-05-22
  svendtc: 2014-05-22
  svstdy: 29
  svendy: 29
- !ruby/object:SdtmSv
  studyid: ABC1
  usubjid: ABC1-202-11
  visitnum: 7
  visit: VISIT 6
  visitdy: 14
  svstdtc: 2014-05-30
  svendtc: 2014-05-30
  svstdy: 37
  svendy: 37
ABC1-202-12:
- !ruby/object:SdtmSv
  studyid: ABC1
  usubjid: ABC1-202-12
  visitnum: 1
  visit: SCREENING
  visitdy: 14
  svstdtc: 2014-07-14
  svendtc: 2014-07-14
  svstdy: -12
  svendy: -12
- !ruby/object:SdtmSv
  studyid: ABC1
  usubjid: ABC1-202-12
  visitnum: 2
  visit: BASELINE
  visitdy: 14
  svstdtc: 2014-07-26
  svendtc: 2014-07-26
  svstdy: 0
  svendy: 0
- !ruby/object:SdtmSv
  studyid: ABC1
  usubjid: ABC1-202-12
  visitnum: 3
  visit: VISIT 2
  visitdy: 14
  svstdtc: 2014-08-02
  svendtc: 2014-08-02
  svstdy: 7
  svendy: 7
- !ruby/object:SdtmSv
  studyid: ABC1
  usubjid: ABC1-202-12
  visitnum: 4
  visit: VISIT 3
  visitdy: 14
  svstdtc: 2014-08-07
  svendtc: 2014-08-07
  svstdy: 12
  svendy: 12
- !ruby/object:SdtmSv
  studyid: ABC1
  usubjid: ABC1-202-12
  visitnum: 5
  visit: VISIT 4
  visitdy: 14
  svstdtc: 2014-08-12
  svendtc: 2014-08-12
  svstdy: 17
  svendy: 17
- !ruby/object:SdtmSv
  studyid: ABC1
  usubjid: ABC1-202-12
  visitnum: 6
  visit: VISIT 5
  visitdy: 14
  svstdtc: 2014-08-19
  svendtc: 2014-08-19
  svstdy: 24
  svendy: 24
- !ruby/object:SdtmSv
  studyid: ABC1
  usubjid: ABC1-202-12
  visitnum: 7
  visit: VISIT 6
  visitdy: 14
  svstdtc: 2014-08-26
  svendtc: 2014-08-26
  svstdy: 31
  svendy: 31
ABC1-202-13:
- !ruby/object:SdtmSv
  studyid: ABC1
  usubjid: ABC1-202-13
  visitnum: 1
  visit: SCREENING
  visitdy: 14
  svstdtc: 2014-03-02
  svendtc: 2014-03-02
  svstdy: -13
  svendy: -13
- !ruby/object:SdtmSv
  studyid: ABC1
  usubjid: ABC1-202-13
  visitnum: 2
  visit: BASELINE
  visitdy: 14
  svstdtc: 2014-03-15
  svendtc: 2014-03-15
  svstdy: 0
  svendy: 0
- !ruby/object:SdtmSv
  studyid: ABC1
  usubjid: ABC1-202-13
  visitnum: 3
  visit: VISIT 2
  visitdy: 14
  svstdtc: 2014-03-20
  svendtc: 2014-03-20
  svstdy: 5
  svendy: 5
ABC1-202-14:
- !ruby/object:SdtmSv
  studyid: ABC1
  usubjid: ABC1-202-14
  visitnum: 1
  visit: SCREENING
  visitdy: 14
  svstdtc: 2014-02-28
  svendtc: 2014-02-28
  svstdy: -12
  svendy: -12
- !ruby/object:SdtmSv
  studyid: ABC1
  usubjid: ABC1-202-14
  visitnum: 2
  visit: BASELINE
  visitdy: 14
  svstdtc: 2014-03-12
  svendtc: 2014-03-12
  svstdy: 0
  svendy: 0
- !ruby/object:SdtmSv
  studyid: ABC1
  usubjid: ABC1-202-14
  visitnum: 3
  visit: VISIT 2
  visitdy: 14
  svstdtc: 2014-03-19
  svendtc: 2014-03-19
  svstdy: 7
  svendy: 7
- !ruby/object:SdtmSv
  studyid: ABC1
  usubjid: ABC1-202-14
  visitnum: 4
  visit: VISIT 3
  visitdy: 14
  svstdtc: 2014-03-26
  svendtc: 2014-03-26
  svstdy: 14
  svendy: 14
- !ruby/object:SdtmSv
  studyid: ABC1
  usubjid: ABC1-202-14
  visitnum: 5
  visit: VISIT 4
  visitdy: 14
  svstdtc: 2014-04-03
  svendtc: 2014-04-03
  svstdy: 22
  svendy: 22
- !ruby/object:SdtmSv
  studyid: ABC1
  usubjid: ABC1-202-14
  visitnum: 6
  visit: VISIT 5
  visitdy: 14
  svstdtc: 2014-04-10
  svendtc: 2014-04-10
  svstdy: 29
  svendy: 29
- !ruby/object:SdtmSv
  studyid: ABC1
  usubjid: ABC1-202-14
  visitnum: 7
  visit: VISIT 6
  visitdy: 14
  svstdtc: 2014-04-17
  svendtc: 2014-04-17
  svstdy: 36
  svendy: 36
ABC1-202-15:
- !ruby/object:SdtmSv
  studyid: ABC1
  usubjid: ABC1-202-15
  visitnum: 1
  visit: SCREENING
  visitdy: 14
  svstdtc: 2014-08-21
  svendtc: 2014-08-21
  svstdy: -12
  svendy: -12
- !ruby/object:SdtmSv
  studyid: ABC1
  usubjid: ABC1-202-15
  visitnum: 2
  visit: BASELINE
  visitdy: 14
  svstdtc: 2014-09-02
  svendtc: 2014-09-02
  svstdy: 0
  svendy: 0
- !ruby/object:SdtmSv
  studyid: ABC1
  usubjid: ABC1-202-15
  visitnum: 3
  visit: VISIT 2
  visitdy: 14
  svstdtc: 2014-09-09
  svendtc: 2014-09-09
  svstdy: 7
  svendy: 7
- !ruby/object:SdtmSv
  studyid: ABC1
  usubjid: ABC1-202-15
  visitnum: 4
  visit: VISIT 3
  visitdy: 14
  svstdtc: 2014-09-16
  svendtc: 2014-09-16
  svstdy: 14
  svendy: 14
- !ruby/object:SdtmSv
  studyid: ABC1
  usubjid: ABC1-202-15
  visitnum: 5
  visit: VISIT 4
  visitdy: 14
  svstdtc: 2014-09-23
  svendtc: 2014-09-23
  svstdy: 21
  svendy: 21
- !ruby/object:SdtmSv
  studyid: ABC1
  usubjid: ABC1-202-15
  visitnum: 6
  visit: VISIT 5
  visitdy: 14
  svstdtc: 2014-10-01
  svendtc: 2014-10-01
  svstdy: 29
  svendy: 29
- !ruby/object:SdtmSv
  studyid: ABC1
  usubjid: ABC1-202-15
  visitnum: 7
  visit: VISIT 6
  visitdy: 14
  svstdtc: 2014-10-07
  svendtc: 2014-10-07
  svstdy: 35
  svendy: 35
ABC1-202-17:
- !ruby/object:SdtmSv
  studyid: ABC1
  usubjid: ABC1-202-17
  visitnum: 1
  visit: SCREENING
  visitdy: 14
  svstdtc: 2014-05-05
  svendtc: 2014-05-05
  svstdy: -14
  svendy: -14
- !ruby/object:SdtmSv
  studyid: ABC1
  usubjid: ABC1-202-17
  visitnum: 2
  visit: BASELINE
  visitdy: 14
  svstdtc: 2014-05-19
  svendtc: 2014-05-19
  svstdy: 0
  svendy: 0
- !ruby/object:SdtmSv
  studyid: ABC1
  usubjid: ABC1-202-17
  visitnum: 3
  visit: VISIT 2
  visitdy: 14
  svstdtc: 2014-05-25
  svendtc: 2014-05-25
  svstdy: 6
  svendy: 6
- !ruby/object:SdtmSv
  studyid: ABC1
  usubjid: ABC1-202-17
  visitnum: 4
  visit: VISIT 3
  visitdy: 14
  svstdtc: 2014-05-31
  svendtc: 2014-05-31
  svstdy: 12
  svendy: 12
- !ruby/object:SdtmSv
  studyid: ABC1
  usubjid: ABC1-202-17
  visitnum: 5
  visit: VISIT 4
  visitdy: 14
  svstdtc: 2014-06-06
  svendtc: 2014-06-06
  svstdy: 18
  svendy: 18
- !ruby/object:SdtmSv
  studyid: ABC1
  usubjid: ABC1-202-17
  visitnum: 6
  visit: VISIT 5
  visitdy: 14
  svstdtc: 2014-06-13
  svendtc: 2014-06-13
  svstdy: 25
  svendy: 25
ABC1-202-18:
- !ruby/object:SdtmSv
  studyid: ABC1
  usubjid: ABC1-202-18
  visitnum: 1
  visit: SCREENING
  visitdy: 14
  svstdtc: 2014-11-10
  svendtc: 2014-11-10
  svstdy: -14
  svendy: -14
- !ruby/object:SdtmSv
  studyid: ABC1
  usubjid: ABC1-202-18
  visitnum: 2
  visit: BASELINE
  visitdy: 14
  svstdtc: 2014-11-24
  svendtc: 2014-11-24
  svstdy: 0
  svendy: 0
- !ruby/object:SdtmSv
  studyid: ABC1
  usubjid: ABC1-202-18
  visitnum: 3
  visit: VISIT 2
  visitdy: 14
  svstdtc: 2014-12-01
  svendtc: 2014-12-01
  svstdy: 7
  svendy: 7
- !ruby/object:SdtmSv
  studyid: ABC1
  usubjid: ABC1-202-18
  visitnum: 4
  visit: VISIT 3
  visitdy: 14
  svstdtc: 2014-12-08
  svendtc: 2014-12-08
  svstdy: 14
  svendy: 14
- !ruby/object:SdtmSv
  studyid: ABC1
  usubjid: ABC1-202-18
  visitnum: 5
  visit: VISIT 4
  visitdy: 14
  svstdtc: 2014-12-14
  svendtc: 2014-12-14
  svstdy: 20
  svendy: 20
ABC1-202-19:
- !ruby/object:SdtmSv
  studyid: ABC1
  usubjid: ABC1-202-19
  visitnum: 1
  visit: SCREENING
  visitdy: 14
  svstdtc: 2014-04-12
  svendtc: 2014-04-12
  svstdy: -12
  svendy: -12
- !ruby/object:SdtmSv
  studyid: ABC1
  usubjid: ABC1-202-19
  visitnum: 2
  visit: BASELINE
  visitdy: 14
  svstdtc: 2014-04-24
  svendtc: 2014-04-24
  svstdy: 0
  svendy: 0
- !ruby/object:SdtmSv
  studyid: ABC1
  usubjid: ABC1-202-19
  visitnum: 3
  visit: VISIT 2
  visitdy: 14
  svstdtc: 2014-04-30
  svendtc: 2014-04-30
  svstdy: 6
  svendy: 6
- !ruby/object:SdtmSv
  studyid: ABC1
  usubjid: ABC1-202-19
  visitnum: 4
  visit: VISIT 3
  visitdy: 14
  svstdtc: 2014-05-07
  svendtc: 2014-05-07
  svstdy: 13
  svendy: 13
- !ruby/object:SdtmSv
  studyid: ABC1
  usubjid: ABC1-202-19
  visitnum: 5
  visit: VISIT 4
  visitdy: 14
  svstdtc: 2014-05-13
  svendtc: 2014-05-13
  svstdy: 19
  svendy: 19
- !ruby/object:SdtmSv
  studyid: ABC1
  usubjid: ABC1-202-19
  visitnum: 6
  visit: VISIT 5
  visitdy: 14
  svstdtc: 2014-05-18
  svendtc: 2014-05-18
  svstdy: 24
  svendy: 24
- !ruby/object:SdtmSv
  studyid: ABC1
  usubjid: ABC1-202-19
  visitnum: 7
  visit: VISIT 6
  visitdy: 14
  svstdtc: 2014-05-24
  svendtc: 2014-05-24
  svstdy: 30
  svendy: 30
ABC1-202-21:
- !ruby/object:SdtmSv
  studyid: ABC1
  usubjid: ABC1-202-21
  visitnum: 1
  visit: SCREENING
  visitdy: 14
  svstdtc: 2014-09-04
  svendtc: 2014-09-04
  svstdy: -12
  svendy: -12
- !ruby/object:SdtmSv
  studyid: ABC1
  usubjid: ABC1-202-21
  visitnum: 2
  visit: BASELINE
  visitdy: 14
  svstdtc: 2014-09-16
  svendtc: 2014-09-16
  svstdy: 0
  svendy: 0
- !ruby/object:SdtmSv
  studyid: ABC1
  usubjid: ABC1-202-21
  visitnum: 3
  visit: VISIT 2
  visitdy: 14
  svstdtc: 2014-09-23
  svendtc: 2014-09-23
  svstdy: 7
  svendy: 7
- !ruby/object:SdtmSv
  studyid: ABC1
  usubjid: ABC1-202-21
  visitnum: 4
  visit: VISIT 3
  visitdy: 14
  svstdtc: 2014-09-27
  svendtc: 2014-09-27
  svstdy: 11
  svendy: 11
- !ruby/object:SdtmSv
  studyid: ABC1
  usubjid: ABC1-202-21
  visitnum: 5
  visit: VISIT 4
  visitdy: 14
  svstdtc: 2014-10-04
  svendtc: 2014-10-04
  svstdy: 18
  svendy: 18
- !ruby/object:SdtmSv
  studyid: ABC1
  usubjid: ABC1-202-21
  visitnum: 6
  visit: VISIT 5
  visitdy: 14
  svstdtc: 2014-10-10
  svendtc: 2014-10-10
  svstdy: 24
  svendy: 24
- !ruby/object:SdtmSv
  studyid: ABC1
  usubjid: ABC1-202-21
  visitnum: 7
  visit: VISIT 6
  visitdy: 14
  svstdtc: 2014-10-17
  svendtc: 2014-10-17
  svstdy: 31
  svendy: 31
ABC1-301-02:
- !ruby/object:SdtmSv
  studyid: ABC1
  usubjid: ABC1-301-02
  visitnum: 1
  visit: SCREENING
  visitdy: 14
  svstdtc: 2014-04-27
  svendtc: 2014-04-27
  svstdy: -14
  svendy: -14
- !ruby/object:SdtmSv
  studyid: ABC1
  usubjid: ABC1-301-02
  visitnum: 2
  visit: BASELINE
  visitdy: 14
  svstdtc: 2014-05-11
  svendtc: 2014-05-11
  svstdy: 0
  svendy: 0
- !ruby/object:SdtmSv
  studyid: ABC1
  usubjid: ABC1-301-02
  visitnum: 3
  visit: VISIT 2
  visitdy: 14
  svstdtc: 2014-05-19
  svendtc: 2014-05-19
  svstdy: 8
  svendy: 8
- !ruby/object:SdtmSv
  studyid: ABC1
  usubjid: ABC1-301-02
  visitnum: 4
  visit: VISIT 3
  visitdy: 14
  svstdtc: 2014-05-26
  svendtc: 2014-05-26
  svstdy: 15
  svendy: 15
- !ruby/object:SdtmSv
  studyid: ABC1
  usubjid: ABC1-301-02
  visitnum: 5
  visit: VISIT 4
  visitdy: 14
  svstdtc: 2014-06-01
  svendtc: 2014-06-01
  svstdy: 21
  svendy: 21
- !ruby/object:SdtmSv
  studyid: ABC1
  usubjid: ABC1-301-02
  visitnum: 6
  visit: VISIT 5
  visitdy: 14
  svstdtc: 2014-06-08
  svendtc: 2014-06-08
  svstdy: 28
  svendy: 28
- !ruby/object:SdtmSv
  studyid: ABC1
  usubjid: ABC1-301-02
  visitnum: 7
  visit: VISIT 6
  visitdy: 14
  svstdtc: 2014-06-15
  svendtc: 2014-06-15
  svstdy: 35
  svendy: 35
ABC1-301-03:
- !ruby/object:SdtmSv
  studyid: ABC1
  usubjid: ABC1-301-03
  visitnum: 1
  visit: SCREENING
  visitdy: 14
  svstdtc: 2014-04-29
  svendtc: 2014-04-29
  svstdy: -13
  svendy: -13
- !ruby/object:SdtmSv
  studyid: ABC1
  usubjid: ABC1-301-03
  visitnum: 2
  visit: BASELINE
  visitdy: 14
  svstdtc: 2014-05-12
  svendtc: 2014-05-12
  svstdy: 0
  svendy: 0
- !ruby/object:SdtmSv
  studyid: ABC1
  usubjid: ABC1-301-03
  visitnum: 3
  visit: VISIT 2
  visitdy: 14
  svstdtc: 2014-05-18
  svendtc: 2014-05-18
  svstdy: 6
  svendy: 6
- !ruby/object:SdtmSv
  studyid: ABC1
  usubjid: ABC1-301-03
  visitnum: 4
  visit: VISIT 3
  visitdy: 14
  svstdtc: 2014-05-25
  svendtc: 2014-05-25
  svstdy: 13
  svendy: 13
- !ruby/object:SdtmSv
  studyid: ABC1
  usubjid: ABC1-301-03
  visitnum: 5
  visit: VISIT 4
  visitdy: 14
  svstdtc: 2014-05-31
  svendtc: 2014-05-31
  svstdy: 19
  svendy: 19
ABC1-301-04:
- !ruby/object:SdtmSv
  studyid: ABC1
  usubjid: ABC1-301-04
  visitnum: 1
  visit: SCREENING
  visitdy: 14
  svstdtc: 2014-03-19
  svendtc: 2014-03-19
  svstdy: -13
  svendy: -13
- !ruby/object:SdtmSv
  studyid: ABC1
  usubjid: ABC1-301-04
  visitnum: 2
  visit: BASELINE
  visitdy: 14
  svstdtc: 2014-04-01
  svendtc: 2014-04-01
  svstdy: 0
  svendy: 0
- !ruby/object:SdtmSv
  studyid: ABC1
  usubjid: ABC1-301-04
  visitnum: 3
  visit: VISIT 2
  visitdy: 14
  svstdtc: 2014-04-07
  svendtc: 2014-04-07
  svstdy: 6
  svendy: 6
- !ruby/object:SdtmSv
  studyid: ABC1
  usubjid: ABC1-301-04
  visitnum: 4
  visit: VISIT 3
  visitdy: 14
  svstdtc: 2014-04-13
  svendtc: 2014-04-13
  svstdy: 12
  svendy: 12
- !ruby/object:SdtmSv
  studyid: ABC1
  usubjid: ABC1-301-04
  visitnum: 5
  visit: VISIT 4
  visitdy: 14
  svstdtc: 2014-04-20
  svendtc: 2014-04-20
  svstdy: 19
  svendy: 19
- !ruby/object:SdtmSv
  studyid: ABC1
  usubjid: ABC1-301-04
  visitnum: 6
  visit: VISIT 5
  visitdy: 14
  svstdtc: 2014-04-27
  svendtc: 2014-04-27
  svstdy: 26
  svendy: 26
- !ruby/object:SdtmSv
  studyid: ABC1
  usubjid: ABC1-301-04
  visitnum: 7
  visit: VISIT 6
  visitdy: 14
  svstdtc: 2014-05-01
  svendtc: 2014-05-01
  svstdy: 30
  svendy: 30
ABC1-301-05:
- !ruby/object:SdtmSv
  studyid: ABC1
  usubjid: ABC1-301-05
  visitnum: 1
  visit: SCREENING
  visitdy: 14
  svstdtc: 2014-06-06
  svendtc: 2014-06-06
  svstdy: -14
  svendy: -14
- !ruby/object:SdtmSv
  studyid: ABC1
  usubjid: ABC1-301-05
  visitnum: 2
  visit: BASELINE
  visitdy: 14
  svstdtc: 2014-06-20
  svendtc: 2014-06-20
  svstdy: 0
  svendy: 0
- !ruby/object:SdtmSv
  studyid: ABC1
  usubjid: ABC1-301-05
  visitnum: 3
  visit: VISIT 2
  visitdy: 14
  svstdtc: 2014-06-26
  svendtc: 2014-06-26
  svstdy: 6
  svendy: 6
ABC1-301-06:
- !ruby/object:SdtmSv
  studyid: ABC1
  usubjid: ABC1-301-06
  visitnum: 1
  visit: SCREENING
  visitdy: 14
  svstdtc: 2014-03-24
  svendtc: 2014-03-24
  svstdy: -13
  svendy: -13
- !ruby/object:SdtmSv
  studyid: ABC1
  usubjid: ABC1-301-06
  visitnum: 2
  visit: BASELINE
  visitdy: 14
  svstdtc: 2014-04-06
  svendtc: 2014-04-06
  svstdy: 0
  svendy: 0
- !ruby/object:SdtmSv
  studyid: ABC1
  usubjid: ABC1-301-06
  visitnum: 3
  visit: VISIT 2
  visitdy: 14
  svstdtc: 2014-04-13
  svendtc: 2014-04-13
  svstdy: 7
  svendy: 7
- !ruby/object:SdtmSv
  studyid: ABC1
  usubjid: ABC1-301-06
  visitnum: 4
  visit: VISIT 3
  visitdy: 14
  svstdtc: 2014-04-20
  svendtc: 2014-04-20
  svstdy: 14
  svendy: 14
ABC1-301-08:
- !ruby/object:SdtmSv
  studyid: ABC1
  usubjid: ABC1-301-08
  visitnum: 1
  visit: SCREENING
  visitdy: 14
  svstdtc: 2014-05-31
  svendtc: 2014-05-31
  svstdy: -13
  svendy: -13
- !ruby/object:SdtmSv
  studyid: ABC1
  usubjid: ABC1-301-08
  visitnum: 2
  visit: BASELINE
  visitdy: 14
  svstdtc: 2014-06-13
  svendtc: 2014-06-13
  svstdy: 0
  svendy: 0
- !ruby/object:SdtmSv
  studyid: ABC1
  usubjid: ABC1-301-08
  visitnum: 3
  visit: VISIT 2
  visitdy: 14
  svstdtc: 2014-06-21
  svendtc: 2014-06-21
  svstdy: 8
  svendy: 8
- !ruby/object:SdtmSv
  studyid: ABC1
  usubjid: ABC1-301-08
  visitnum: 4
  visit: VISIT 3
  visitdy: 14
  svstdtc: 2014-06-27
  svendtc: 2014-06-27
  svstdy: 14
  svendy: 14
- !ruby/object:SdtmSv
  studyid: ABC1
  usubjid: ABC1-301-08
  visitnum: 5
  visit: VISIT 4
  visitdy: 14
  svstdtc: 2014-07-04
  svendtc: 2014-07-04
  svstdy: 21
  svendy: 21
- !ruby/object:SdtmSv
  studyid: ABC1
  usubjid: ABC1-301-08
  visitnum: 6
  visit: VISIT 5
  visitdy: 14
  svstdtc: 2014-07-11
  svendtc: 2014-07-11
  svstdy: 28
  svendy: 28
- !ruby/object:SdtmSv
  studyid: ABC1
  usubjid: ABC1-301-08
  visitnum: 7
  visit: VISIT 6
  visitdy: 14
  svstdtc: 2014-07-17
  svendtc: 2014-07-17
  svstdy: 34
  svendy: 34
ABC1-301-09:
- !ruby/object:SdtmSv
  studyid: ABC1
  usubjid: ABC1-301-09
  visitnum: 1
  visit: SCREENING
  visitdy: 14
  svstdtc: 2014-07-30
  svendtc: 2014-07-30
  svstdy: -14
  svendy: -14
- !ruby/object:SdtmSv
  studyid: ABC1
  usubjid: ABC1-301-09
  visitnum: 2
  visit: BASELINE
  visitdy: 14
  svstdtc: 2014-08-13
  svendtc: 2014-08-13
  svstdy: 0
  svendy: 0
- !ruby/object:SdtmSv
  studyid: ABC1
  usubjid: ABC1-301-09
  visitnum: 3
  visit: VISIT 2
  visitdy: 14
  svstdtc: 2014-08-20
  svendtc: 2014-08-20
  svstdy: 7
  svendy: 7
- !ruby/object:SdtmSv
  studyid: ABC1
  usubjid: ABC1-301-09
  visitnum: 4
  visit: VISIT 3
  visitdy: 14
  svstdtc: 2014-08-27
  svendtc: 2014-08-27
  svstdy: 14
  svendy: 14
- !ruby/object:SdtmSv
  studyid: ABC1
  usubjid: ABC1-301-09
  visitnum: 5
  visit: VISIT 4
  visitdy: 14
  svstdtc: 2014-09-02
  svendtc: 2014-09-02
  svstdy: 20
  svendy: 20
- !ruby/object:SdtmSv
  studyid: ABC1
  usubjid: ABC1-301-09
  visitnum: 6
  visit: VISIT 5
  visitdy: 14
  svstdtc: 2014-09-07
  svendtc: 2014-09-07
  svstdy: 25
  svendy: 25
- !ruby/object:SdtmSv
  studyid: ABC1
  usubjid: ABC1-301-09
  visitnum: 7
  visit: VISIT 6
  visitdy: 14
  svstdtc: 2014-09-13
  svendtc: 2014-09-13
  svstdy: 31
  svendy: 31
ABC1-301-10:
- !ruby/object:SdtmSv
  studyid: ABC1
  usubjid: ABC1-301-10
  visitnum: 1
  visit: SCREENING
  visitdy: 14
  svstdtc: 2014-02-22
  svendtc: 2014-02-22
  svstdy: -14
  svendy: -14
- !ruby/object:SdtmSv
  studyid: ABC1
  usubjid: ABC1-301-10
  visitnum: 2
  visit: BASELINE
  visitdy: 14
  svstdtc: 2014-03-08
  svendtc: 2014-03-08
  svstdy: 0
  svendy: 0
- !ruby/object:SdtmSv
  studyid: ABC1
  usubjid: ABC1-301-10
  visitnum: 3
  visit: VISIT 2
  visitdy: 14
  svstdtc: 2014-03-14
  svendtc: 2014-03-14
  svstdy: 6
  svendy: 6
- !ruby/object:SdtmSv
  studyid: ABC1
  usubjid: ABC1-301-10
  visitnum: 4
  visit: VISIT 3
  visitdy: 14
  svstdtc: 2014-03-19
  svendtc: 2014-03-19
  svstdy: 11
  svendy: 11
- !ruby/object:SdtmSv
  studyid: ABC1
  usubjid: ABC1-301-10
  visitnum: 5
  visit: VISIT 4
  visitdy: 14
  svstdtc: 2014-03-27
  svendtc: 2014-03-27
  svstdy: 19
  svendy: 19
- !ruby/object:SdtmSv
  studyid: ABC1
  usubjid: ABC1-301-10
  visitnum: 6
  visit: VISIT 5
  visitdy: 14
  svstdtc: 2014-04-04
  svendtc: 2014-04-04
  svstdy: 27
  svendy: 27
- !ruby/object:SdtmSv
  studyid: ABC1
  usubjid: ABC1-301-10
  visitnum: 7
  visit: VISIT 6
  visitdy: 14
  svstdtc: 2014-04-10
  svendtc: 2014-04-10
  svstdy: 33
  svendy: 33
ABC1-302-01:
- !ruby/object:SdtmSv
  studyid: ABC1
  usubjid: ABC1-302-01
  visitnum: 1
  visit: SCREENING
  visitdy: 14
  svstdtc: 2014-03-29
  svendtc: 2014-03-29
  svstdy: -14
  svendy: -14
- !ruby/object:SdtmSv
  studyid: ABC1
  usubjid: ABC1-302-01
  visitnum: 2
  visit: BASELINE
  visitdy: 14
  svstdtc: 2014-04-12
  svendtc: 2014-04-12
  svstdy: 0
  svendy: 0
- !ruby/object:SdtmSv
  studyid: ABC1
  usubjid: ABC1-302-01
  visitnum: 3
  visit: VISIT 2
  visitdy: 14
  svstdtc: 2014-04-19
  svendtc: 2014-04-19
  svstdy: 7
  svendy: 7
- !ruby/object:SdtmSv
  studyid: ABC1
  usubjid: ABC1-302-01
  visitnum: 4
  visit: VISIT 3
  visitdy: 14
  svstdtc: 2014-04-26
  svendtc: 2014-04-26
  svstdy: 14
  svendy: 14
- !ruby/object:SdtmSv
  studyid: ABC1
  usubjid: ABC1-302-01
  visitnum: 5
  visit: VISIT 4
  visitdy: 14
  svstdtc: 2014-05-03
  svendtc: 2014-05-03
  svstdy: 21
  svendy: 21
- !ruby/object:SdtmSv
  studyid: ABC1
  usubjid: ABC1-302-01
  visitnum: 6
  visit: VISIT 5
  visitdy: 14
  svstdtc: 2014-05-09
  svendtc: 2014-05-09
  svstdy: 27
  svendy: 27
- !ruby/object:SdtmSv
  studyid: ABC1
  usubjid: ABC1-302-01
  visitnum: 7
  visit: VISIT 6
  visitdy: 14
  svstdtc: 2014-05-16
  svendtc: 2014-05-16
  svstdy: 34
  svendy: 34
ABC1-302-02:
- !ruby/object:SdtmSv
  studyid: ABC1
  usubjid: ABC1-302-02
  visitnum: 1
  visit: SCREENING
  visitdy: 14
  svstdtc: 2014-10-30
  svendtc: 2014-10-30
  svstdy: -13
  svendy: -13
- !ruby/object:SdtmSv
  studyid: ABC1
  usubjid: ABC1-302-02
  visitnum: 2
  visit: BASELINE
  visitdy: 14
  svstdtc: 2014-11-12
  svendtc: 2014-11-12
  svstdy: 0
  svendy: 0
- !ruby/object:SdtmSv
  studyid: ABC1
  usubjid: ABC1-302-02
  visitnum: 3
  visit: VISIT 2
  visitdy: 14
  svstdtc: 2014-11-19
  svendtc: 2014-11-19
  svstdy: 7
  svendy: 7
- !ruby/object:SdtmSv
  studyid: ABC1
  usubjid: ABC1-302-02
  visitnum: 4
  visit: VISIT 3
  visitdy: 14
  svstdtc: 2014-11-26
  svendtc: 2014-11-26
  svstdy: 14
  svendy: 14
- !ruby/object:SdtmSv
  studyid: ABC1
  usubjid: ABC1-302-02
  visitnum: 5
  visit: VISIT 4
  visitdy: 14
  svstdtc: 2014-12-02
  svendtc: 2014-12-02
  svstdy: 20
  svendy: 20
- !ruby/object:SdtmSv
  studyid: ABC1
  usubjid: ABC1-302-02
  visitnum: 6
  visit: VISIT 5
  visitdy: 14
  svstdtc: 2014-12-10
  svendtc: 2014-12-10
  svstdy: 28
  svendy: 28
- !ruby/object:SdtmSv
  studyid: ABC1
  usubjid: ABC1-302-02
  visitnum: 7
  visit: VISIT 6
  visitdy: 14
  svstdtc: 2014-12-17
  svendtc: 2014-12-17
  svstdy: 35
  svendy: 35
ABC1-302-03:
- !ruby/object:SdtmSv
  studyid: ABC1
  usubjid: ABC1-302-03
  visitnum: 1
  visit: SCREENING
  visitdy: 14
  svstdtc: 2014-02-18
  svendtc: 2014-02-18
  svstdy: -14
  svendy: -14
- !ruby/object:SdtmSv
  studyid: ABC1
  usubjid: ABC1-302-03
  visitnum: 2
  visit: BASELINE
  visitdy: 14
  svstdtc: 2014-03-04
  svendtc: 2014-03-04
  svstdy: 0
  svendy: 0
ABC1-302-04:
- !ruby/object:SdtmSv
  studyid: ABC1
  usubjid: ABC1-302-04
  visitnum: 1
  visit: SCREENING
  visitdy: 14
  svstdtc: 2014-04-03
  svendtc: 2014-04-03
  svstdy: -14
  svendy: -14
- !ruby/object:SdtmSv
  studyid: ABC1
  usubjid: ABC1-302-04
  visitnum: 2
  visit: BASELINE
  visitdy: 14
  svstdtc: 2014-04-17
  svendtc: 2014-04-17
  svstdy: 0
  svendy: 0
- !ruby/object:SdtmSv
  studyid: ABC1
  usubjid: ABC1-302-04
  visitnum: 3
  visit: VISIT 2
  visitdy: 14
  svstdtc: 2014-04-24
  svendtc: 2014-04-24
  svstdy: 7
  svendy: 7
- !ruby/object:SdtmSv
  studyid: ABC1
  usubjid: ABC1-302-04
  visitnum: 4
  visit: VISIT 3
  visitdy: 14
  svstdtc: 2014-05-01
  svendtc: 2014-05-01
  svstdy: 14
  svendy: 14
- !ruby/object:SdtmSv
  studyid: ABC1
  usubjid: ABC1-302-04
  visitnum: 5
  visit: VISIT 4
  visitdy: 14
  svstdtc: 2014-05-09
  svendtc: 2014-05-09
  svstdy: 22
  svendy: 22
- !ruby/object:SdtmSv
  studyid: ABC1
  usubjid: ABC1-302-04
  visitnum: 6
  visit: VISIT 5
  visitdy: 14
  svstdtc: 2014-05-15
  svendtc: 2014-05-15
  svstdy: 28
  svendy: 28
- !ruby/object:SdtmSv
  studyid: ABC1
  usubjid: ABC1-302-04
  visitnum: 7
  visit: VISIT 6
  visitdy: 14
  svstdtc: 2014-05-21
  svendtc: 2014-05-21
  svstdy: 34
  svendy: 34
ABC1-302-05:
- !ruby/object:SdtmSv
  studyid: ABC1
  usubjid: ABC1-302-05
  visitnum: 1
  visit: SCREENING
  visitdy: 14
  svstdtc: 2014-09-19
  svendtc: 2014-09-19
  svstdy: -14
  svendy: -14
- !ruby/object:SdtmSv
  studyid: ABC1
  usubjid: ABC1-302-05
  visitnum: 2
  visit: BASELINE
  visitdy: 14
  svstdtc: 2014-10-03
  svendtc: 2014-10-03
  svstdy: 0
  svendy: 0
- !ruby/object:SdtmSv
  studyid: ABC1
  usubjid: ABC1-302-05
  visitnum: 3
  visit: VISIT 2
  visitdy: 14
  svstdtc: 2014-10-11
  svendtc: 2014-10-11
  svstdy: 8
  svendy: 8
- !ruby/object:SdtmSv
  studyid: ABC1
  usubjid: ABC1-302-05
  visitnum: 4
  visit: VISIT 3
  visitdy: 14
  svstdtc: 2014-10-18
  svendtc: 2014-10-18
  svstdy: 15
  svendy: 15
- !ruby/object:SdtmSv
  studyid: ABC1
  usubjid: ABC1-302-05
  visitnum: 5
  visit: VISIT 4
  visitdy: 14
  svstdtc: 2014-10-24
  svendtc: 2014-10-24
  svstdy: 21
  svendy: 21
- !ruby/object:SdtmSv
  studyid: ABC1
  usubjid: ABC1-302-05
  visitnum: 6
  visit: VISIT 5
  visitdy: 14
  svstdtc: 2014-10-30
  svendtc: 2014-10-30
  svstdy: 27
  svendy: 27
- !ruby/object:SdtmSv
  studyid: ABC1
  usubjid: ABC1-302-05
  visitnum: 7
  visit: VISIT 6
  visitdy: 14
  svstdtc: 2014-11-06
  svendtc: 2014-11-06
  svstdy: 34
  svendy: 34
ABC1-302-06:
- !ruby/object:SdtmSv
  studyid: ABC1
  usubjid: ABC1-302-06
  visitnum: 1
  visit: SCREENING
  visitdy: 14
  svstdtc: 2014-05-22
  svendtc: 2014-05-22
  svstdy: -13
  svendy: -13
- !ruby/object:SdtmSv
  studyid: ABC1
  usubjid: ABC1-302-06
  visitnum: 2
  visit: BASELINE
  visitdy: 14
  svstdtc: 2014-06-04
  svendtc: 2014-06-04
  svstdy: 0
  svendy: 0
- !ruby/object:SdtmSv
  studyid: ABC1
  usubjid: ABC1-302-06
  visitnum: 3
  visit: VISIT 2
  visitdy: 14
  svstdtc: 2014-06-09
  svendtc: 2014-06-09
  svstdy: 5
  svendy: 5
- !ruby/object:SdtmSv
  studyid: ABC1
  usubjid: ABC1-302-06
  visitnum: 4
  visit: VISIT 3
  visitdy: 14
  svstdtc: 2014-06-15
  svendtc: 2014-06-15
  svstdy: 11
  svendy: 11
- !ruby/object:SdtmSv
  studyid: ABC1
  usubjid: ABC1-302-06
  visitnum: 5
  visit: VISIT 4
  visitdy: 14
  svstdtc: 2014-06-22
  svendtc: 2014-06-22
  svstdy: 18
  svendy: 18
- !ruby/object:SdtmSv
  studyid: ABC1
  usubjid: ABC1-302-06
  visitnum: 6
  visit: VISIT 5
  visitdy: 14
  svstdtc: 2014-06-30
  svendtc: 2014-06-30
  svstdy: 26
  svendy: 26
- !ruby/object:SdtmSv
  studyid: ABC1
  usubjid: ABC1-302-06
  visitnum: 7
  visit: VISIT 6
  visitdy: 14
  svstdtc: 2014-07-05
  svendtc: 2014-07-05
  svstdy: 31
  svendy: 31
ABC1-302-07:
- !ruby/object:SdtmSv
  studyid: ABC1
  usubjid: ABC1-302-07
  visitnum: 1
  visit: SCREENING
  visitdy: 14
  svstdtc: 2014-02-27
  svendtc: 2014-02-27
  svstdy: -13
  svendy: -13
- !ruby/object:SdtmSv
  studyid: ABC1
  usubjid: ABC1-302-07
  visitnum: 2
  visit: BASELINE
  visitdy: 14
  svstdtc: 2014-03-12
  svendtc: 2014-03-12
  svstdy: 0
  svendy: 0
- !ruby/object:SdtmSv
  studyid: ABC1
  usubjid: ABC1-302-07
  visitnum: 3
  visit: VISIT 2
  visitdy: 14
  svstdtc: 2014-03-20
  svendtc: 2014-03-20
  svstdy: 8
  svendy: 8
- !ruby/object:SdtmSv
  studyid: ABC1
  usubjid: ABC1-302-07
  visitnum: 4
  visit: VISIT 3
  visitdy: 14
  svstdtc: 2014-03-27
  svendtc: 2014-03-27
  svstdy: 15
  svendy: 15
- !ruby/object:SdtmSv
  studyid: ABC1
  usubjid: ABC1-302-07
  visitnum: 5
  visit: VISIT 4
  visitdy: 14
  svstdtc: 2014-04-03
  svendtc: 2014-04-03
  svstdy: 22
  svendy: 22
- !ruby/object:SdtmSv
  studyid: ABC1
  usubjid: ABC1-302-07
  visitnum: 6
  visit: VISIT 5
  visitdy: 14
  svstdtc: 2014-04-10
  svendtc: 2014-04-10
  svstdy: 29
  svendy: 29
- !ruby/object:SdtmSv
  studyid: ABC1
  usubjid: ABC1-302-07
  visitnum: 7
  visit: VISIT 6
  visitdy: 14
  svstdtc: 2014-04-17
  svendtc: 2014-04-17
  svstdy: 36
  svendy: 36
ABC1-302-08:
- !ruby/object:SdtmSv
  studyid: ABC1
  usubjid: ABC1-302-08
  visitnum: 1
  visit: SCREENING
  visitdy: 14
  svstdtc: 2014-09-06
  svendtc: 2014-09-06
  svstdy: -15
  svendy: -15
- !ruby/object:SdtmSv
  studyid: ABC1
  usubjid: ABC1-302-08
  visitnum: 2
  visit: BASELINE
  visitdy: 14
  svstdtc: 2014-09-21
  svendtc: 2014-09-21
  svstdy: 0
  svendy: 0
- !ruby/object:SdtmSv
  studyid: ABC1
  usubjid: ABC1-302-08
  visitnum: 3
  visit: VISIT 2
  visitdy: 14
  svstdtc: 2014-09-28
  svendtc: 2014-09-28
  svstdy: 7
  svendy: 7
- !ruby/object:SdtmSv
  studyid: ABC1
  usubjid: ABC1-302-08
  visitnum: 4
  visit: VISIT 3
  visitdy: 14
  svstdtc: 2014-10-05
  svendtc: 2014-10-05
  svstdy: 14
  svendy: 14
- !ruby/object:SdtmSv
  studyid: ABC1
  usubjid: ABC1-302-08
  visitnum: 5
  visit: VISIT 4
  visitdy: 14
  svstdtc: 2014-10-12
  svendtc: 2014-10-12
  svstdy: 21
  svendy: 21
- !ruby/object:SdtmSv
  studyid: ABC1
  usubjid: ABC1-302-08
  visitnum: 6
  visit: VISIT 5
  visitdy: 14
  svstdtc: 2014-10-19
  svendtc: 2014-10-19
  svstdy: 28
  svendy: 28
- !ruby/object:SdtmSv
  studyid: ABC1
  usubjid: ABC1-302-08
  visitnum: 7
  visit: VISIT 6
  visitdy: 14
  svstdtc: 2014-10-25
  svendtc: 2014-10-25
  svstdy: 34
  svendy: 34
ABC1-303-01:
- !ruby/object:SdtmSv
  studyid: ABC1
  usubjid: ABC1-303-01
  visitnum: 1
  visit: SCREENING
  visitdy: 14
  svstdtc: 2014-06-04
  svendtc: 2014-06-04
  svstdy: -13
  svendy: -13
- !ruby/object:SdtmSv
  studyid: ABC1
  usubjid: ABC1-303-01
  visitnum: 2
  visit: BASELINE
  visitdy: 14
  svstdtc: 2014-06-17
  svendtc: 2014-06-17
  svstdy: 0
  svendy: 0
- !ruby/object:SdtmSv
  studyid: ABC1
  usubjid: ABC1-303-01
  visitnum: 3
  visit: VISIT 2
  visitdy: 14
  svstdtc: 2014-06-24
  svendtc: 2014-06-24
  svstdy: 7
  svendy: 7
- !ruby/object:SdtmSv
  studyid: ABC1
  usubjid: ABC1-303-01
  visitnum: 4
  visit: VISIT 3
  visitdy: 14
  svstdtc: 2014-06-30
  svendtc: 2014-06-30
  svstdy: 13
  svendy: 13
- !ruby/object:SdtmSv
  studyid: ABC1
  usubjid: ABC1-303-01
  visitnum: 5
  visit: VISIT 4
  visitdy: 14
  svstdtc: 2014-07-06
  svendtc: 2014-07-06
  svstdy: 19
  svendy: 19
- !ruby/object:SdtmSv
  studyid: ABC1
  usubjid: ABC1-303-01
  visitnum: 6
  visit: VISIT 5
  visitdy: 14
  svstdtc: 2014-07-13
  svendtc: 2014-07-13
  svstdy: 26
  svendy: 26
- !ruby/object:SdtmSv
  studyid: ABC1
  usubjid: ABC1-303-01
  visitnum: 7
  visit: VISIT 6
  visitdy: 14
  svstdtc: 2014-07-20
  svendtc: 2014-07-20
  svstdy: 33
  svendy: 33
ABC1-303-02:
- !ruby/object:SdtmSv
  studyid: ABC1
  usubjid: ABC1-303-02
  visitnum: 1
  visit: SCREENING
  visitdy: 14
  svstdtc: 2014-03-14
  svendtc: 2014-03-14
  svstdy: -14
  svendy: -14
- !ruby/object:SdtmSv
  studyid: ABC1
  usubjid: ABC1-303-02
  visitnum: 2
  visit: BASELINE
  visitdy: 14
  svstdtc: 2014-03-28
  svendtc: 2014-03-28
  svstdy: 0
  svendy: 0
ABC1-303-03:
- !ruby/object:SdtmSv
  studyid: ABC1
  usubjid: ABC1-303-03
  visitnum: 1
  visit: SCREENING
  visitdy: 14
  svstdtc: 2014-09-27
  svendtc: 2014-09-27
  svstdy: -14
  svendy: -14
- !ruby/object:SdtmSv
  studyid: ABC1
  usubjid: ABC1-303-03
  visitnum: 2
  visit: BASELINE
  visitdy: 14
  svstdtc: 2014-10-11
  svendtc: 2014-10-11
  svstdy: 0
  svendy: 0
- !ruby/object:SdtmSv
  studyid: ABC1
  usubjid: ABC1-303-03
  visitnum: 3
  visit: VISIT 2
  visitdy: 14
  svstdtc: 2014-10-17
  svendtc: 2014-10-17
  svstdy: 6
  svendy: 6
- !ruby/object:SdtmSv
  studyid: ABC1
  usubjid: ABC1-303-03
  visitnum: 4
  visit: VISIT 3
  visitdy: 14
  svstdtc: 2014-10-24
  svendtc: 2014-10-24
  svstdy: 13
  svendy: 13
- !ruby/object:SdtmSv
  studyid: ABC1
  usubjid: ABC1-303-03
  visitnum: 5
  visit: VISIT 4
  visitdy: 14
  svstdtc: 2014-10-31
  svendtc: 2014-10-31
  svstdy: 20
  svendy: 20
- !ruby/object:SdtmSv
  studyid: ABC1
  usubjid: ABC1-303-03
  visitnum: 6
  visit: VISIT 5
  visitdy: 14
  svstdtc: 2014-11-07
  svendtc: 2014-11-07
  svstdy: 27
  svendy: 27
- !ruby/object:SdtmSv
  studyid: ABC1
  usubjid: ABC1-303-03
  visitnum: 7
  visit: VISIT 6
  visitdy: 14
  svstdtc: 2014-11-12
  svendtc: 2014-11-12
  svstdy: 32
  svendy: 32
ABC1-303-04:
- !ruby/object:SdtmSv
  studyid: ABC1
  usubjid: ABC1-303-04
  visitnum: 1
  visit: SCREENING
  visitdy: 14
  svstdtc: 2014-03-19
  svendtc: 2014-03-19
  svstdy: -13
  svendy: -13
- !ruby/object:SdtmSv
  studyid: ABC1
  usubjid: ABC1-303-04
  visitnum: 2
  visit: BASELINE
  visitdy: 14
  svstdtc: 2014-04-01
  svendtc: 2014-04-01
  svstdy: 0
  svendy: 0
- !ruby/object:SdtmSv
  studyid: ABC1
  usubjid: ABC1-303-04
  visitnum: 3
  visit: VISIT 2
  visitdy: 14
  svstdtc: 2014-04-08
  svendtc: 2014-04-08
  svstdy: 7
  svendy: 7
- !ruby/object:SdtmSv
  studyid: ABC1
  usubjid: ABC1-303-04
  visitnum: 4
  visit: VISIT 3
  visitdy: 14
  svstdtc: 2014-04-15
  svendtc: 2014-04-15
  svstdy: 14
  svendy: 14
- !ruby/object:SdtmSv
  studyid: ABC1
  usubjid: ABC1-303-04
  visitnum: 5
  visit: VISIT 4
  visitdy: 14
  svstdtc: 2014-04-22
  svendtc: 2014-04-22
  svstdy: 21
  svendy: 21
ABC1-303-05:
- !ruby/object:SdtmSv
  studyid: ABC1
  usubjid: ABC1-303-05
  visitnum: 1
  visit: SCREENING
  visitdy: 14
  svstdtc: 2014-05-18
  svendtc: 2014-05-18
  svstdy: -13
  svendy: -13
- !ruby/object:SdtmSv
  studyid: ABC1
  usubjid: ABC1-303-05
  visitnum: 2
  visit: BASELINE
  visitdy: 14
  svstdtc: 2014-05-31
  svendtc: 2014-05-31
  svstdy: 0
  svendy: 0
- !ruby/object:SdtmSv
  studyid: ABC1
  usubjid: ABC1-303-05
  visitnum: 3
  visit: VISIT 2
  visitdy: 14
  svstdtc: 2014-06-07
  svendtc: 2014-06-07
  svstdy: 7
  svendy: 7
- !ruby/object:SdtmSv
  studyid: ABC1
  usubjid: ABC1-303-05
  visitnum: 4
  visit: VISIT 3
  visitdy: 14
  svstdtc: 2014-06-15
  svendtc: 2014-06-15
  svstdy: 15
  svendy: 15
- !ruby/object:SdtmSv
  studyid: ABC1
  usubjid: ABC1-303-05
  visitnum: 5
  visit: VISIT 4
  visitdy: 14
  svstdtc: 2014-06-22
  svendtc: 2014-06-22
  svstdy: 22
  svendy: 22
- !ruby/object:SdtmSv
  studyid: ABC1
  usubjid: ABC1-303-05
  visitnum: 6
  visit: VISIT 5
  visitdy: 14
  svstdtc: 2014-06-28
  svendtc: 2014-06-28
  svstdy: 28
  svendy: 28
- !ruby/object:SdtmSv
  studyid: ABC1
  usubjid: ABC1-303-05
  visitnum: 7
  visit: VISIT 6
  visitdy: 14
  svstdtc: 2014-07-03
  svendtc: 2014-07-03
  svstdy: 33
  svendy: 33
ABC1-303-06:
- !ruby/object:SdtmSv
  studyid: ABC1
  usubjid: ABC1-303-06
  visitnum: 1
  visit: SCREENING
  visitdy: 14
  svstdtc: 2014-02-23
  svendtc: 2014-02-23
  svstdy: -13
  svendy: -13
- !ruby/object:SdtmSv
  studyid: ABC1
  usubjid: ABC1-303-06
  visitnum: 2
  visit: BASELINE
  visitdy: 14
  svstdtc: 2014-03-08
  svendtc: 2014-03-08
  svstdy: 0
  svendy: 0
- !ruby/object:SdtmSv
  studyid: ABC1
  usubjid: ABC1-303-06
  visitnum: 3
  visit: VISIT 2
  visitdy: 14
  svstdtc: 2014-03-15
  svendtc: 2014-03-15
  svstdy: 7
  svendy: 7
- !ruby/object:SdtmSv
  studyid: ABC1
  usubjid: ABC1-303-06
  visitnum: 4
  visit: VISIT 3
  visitdy: 14
  svstdtc: 2014-03-22
  svendtc: 2014-03-22
  svstdy: 14
  svendy: 14
- !ruby/object:SdtmSv
  studyid: ABC1
  usubjid: ABC1-303-06
  visitnum: 5
  visit: VISIT 4
  visitdy: 14
  svstdtc: 2014-03-29
  svendtc: 2014-03-29
  svstdy: 21
  svendy: 21
- !ruby/object:SdtmSv
  studyid: ABC1
  usubjid: ABC1-303-06
  visitnum: 6
  visit: VISIT 5
  visitdy: 14
  svstdtc: 2014-04-05
  svendtc: 2014-04-05
  svstdy: 28
  svendy: 28
- !ruby/object:SdtmSv
  studyid: ABC1
  usubjid: ABC1-303-06
  visitnum: 7
  visit: VISIT 6
  visitdy: 14
  svstdtc: 2014-04-12
  svendtc: 2014-04-12
  svstdy: 35
  svendy: 35
ABC1-303-08:
- !ruby/object:SdtmSv
  studyid: ABC1
  usubjid: ABC1-303-08
  visitnum: 1
  visit: SCREENING
  visitdy: 14
  svstdtc: 2014-09-10
  svendtc: 2014-09-10
  svstdy: -14
  svendy: -14
- !ruby/object:SdtmSv
  studyid: ABC1
  usubjid: ABC1-303-08
  visitnum: 2
  visit: BASELINE
  visitdy: 14
  svstdtc: 2014-09-24
  svendtc: 2014-09-24
  svstdy: 0
  svendy: 0
- !ruby/object:SdtmSv
  studyid: ABC1
  usubjid: ABC1-303-08
  visitnum: 3
  visit: VISIT 2
  visitdy: 14
  svstdtc: 2014-10-01
  svendtc: 2014-10-01
  svstdy: 7
  svendy: 7
- !ruby/object:SdtmSv
  studyid: ABC1
  usubjid: ABC1-303-08
  visitnum: 4
  visit: VISIT 3
  visitdy: 14
  svstdtc: 2014-10-06
  svendtc: 2014-10-06
  svstdy: 12
  svendy: 12
- !ruby/object:SdtmSv
  studyid: ABC1
  usubjid: ABC1-303-08
  visitnum: 5
  visit: VISIT 4
  visitdy: 14
  svstdtc: 2014-10-13
  svendtc: 2014-10-13
  svstdy: 19
  svendy: 19
- !ruby/object:SdtmSv
  studyid: ABC1
  usubjid: ABC1-303-08
  visitnum: 6
  visit: VISIT 5
  visitdy: 14
  svstdtc: 2014-10-21
  svendtc: 2014-10-21
  svstdy: 27
  svendy: 27
- !ruby/object:SdtmSv
  studyid: ABC1
  usubjid: ABC1-303-08
  visitnum: 7
  visit: VISIT 6
  visitdy: 14
  svstdtc: 2014-10-28
  svendtc: 2014-10-28
  svstdy: 34
  svendy: 34
ABC1-303-09:
- !ruby/object:SdtmSv
  studyid: ABC1
  usubjid: ABC1-303-09
  visitnum: 1
  visit: SCREENING
  visitdy: 14
  svstdtc: 2014-02-22
  svendtc: 2014-02-22
  svstdy: -15
  svendy: -15
- !ruby/object:SdtmSv
  studyid: ABC1
  usubjid: ABC1-303-09
  visitnum: 2
  visit: BASELINE
  visitdy: 14
  svstdtc: 2014-03-09
  svendtc: 2014-03-09
  svstdy: 0
  svendy: 0
- !ruby/object:SdtmSv
  studyid: ABC1
  usubjid: ABC1-303-09
  visitnum: 3
  visit: VISIT 2
  visitdy: 14
  svstdtc: 2014-03-15
  svendtc: 2014-03-15
  svstdy: 6
  svendy: 6
- !ruby/object:SdtmSv
  studyid: ABC1
  usubjid: ABC1-303-09
  visitnum: 4
  visit: VISIT 3
  visitdy: 14
  svstdtc: 2014-03-21
  svendtc: 2014-03-21
  svstdy: 12
  svendy: 12
- !ruby/object:SdtmSv
  studyid: ABC1
  usubjid: ABC1-303-09
  visitnum: 5
  visit: VISIT 4
  visitdy: 14
  svstdtc: 2014-03-27
  svendtc: 2014-03-27
  svstdy: 18
  svendy: 18
- !ruby/object:SdtmSv
  studyid: ABC1
  usubjid: ABC1-303-09
  visitnum: 6
  visit: VISIT 5
  visitdy: 14
  svstdtc: 2014-04-03
  svendtc: 2014-04-03
  svstdy: 25
  svendy: 25
- !ruby/object:SdtmSv
  studyid: ABC1
  usubjid: ABC1-303-09
  visitnum: 7
  visit: VISIT 6
  visitdy: 14
  svstdtc: 2014-04-10
  svendtc: 2014-04-10
  svstdy: 32
  svendy: 32
ABC1-303-10:
- !ruby/object:SdtmSv
  studyid: ABC1
  usubjid: ABC1-303-10
  visitnum: 1
  visit: SCREENING
  visitdy: 14
  svstdtc: 2014-02-22
  svendtc: 2014-02-22
  svstdy: -12
  svendy: -12
- !ruby/object:SdtmSv
  studyid: ABC1
  usubjid: ABC1-303-10
  visitnum: 2
  visit: BASELINE
  visitdy: 14
  svstdtc: 2014-03-06
  svendtc: 2014-03-06
  svstdy: 0
  svendy: 0
- !ruby/object:SdtmSv
  studyid: ABC1
  usubjid: ABC1-303-10
  visitnum: 3
  visit: VISIT 2
  visitdy: 14
  svstdtc: 2014-03-13
  svendtc: 2014-03-13
  svstdy: 7
  svendy: 7
- !ruby/object:SdtmSv
  studyid: ABC1
  usubjid: ABC1-303-10
  visitnum: 4
  visit: VISIT 3
  visitdy: 14
  svstdtc: 2014-03-20
  svendtc: 2014-03-20
  svstdy: 14
  svendy: 14
- !ruby/object:SdtmSv
  studyid: ABC1
  usubjid: ABC1-303-10
  visitnum: 5
  visit: VISIT 4
  visitdy: 14
  svstdtc: 2014-03-26
  svendtc: 2014-03-26
  svstdy: 20
  svendy: 20
ABC1-303-11:
- !ruby/object:SdtmSv
  studyid: ABC1
  usubjid: ABC1-303-11
  visitnum: 1
  visit: SCREENING
  visitdy: 14
  svstdtc: 2014-07-08
  svendtc: 2014-07-08
  svstdy: -13
  svendy: -13
- !ruby/object:SdtmSv
  studyid: ABC1
  usubjid: ABC1-303-11
  visitnum: 2
  visit: BASELINE
  visitdy: 14
  svstdtc: 2014-07-21
  svendtc: 2014-07-21
  svstdy: 0
  svendy: 0
- !ruby/object:SdtmSv
  studyid: ABC1
  usubjid: ABC1-303-11
  visitnum: 3
  visit: VISIT 2
  visitdy: 14
  svstdtc: 2014-07-29
  svendtc: 2014-07-29
  svstdy: 8
  svendy: 8
- !ruby/object:SdtmSv
  studyid: ABC1
  usubjid: ABC1-303-11
  visitnum: 4
  visit: VISIT 3
  visitdy: 14
  svstdtc: 2014-08-05
  svendtc: 2014-08-05
  svstdy: 15
  svendy: 15
- !ruby/object:SdtmSv
  studyid: ABC1
  usubjid: ABC1-303-11
  visitnum: 5
  visit: VISIT 4
  visitdy: 14
  svstdtc: 2014-08-10
  svendtc: 2014-08-10
  svstdy: 20
  svendy: 20
- !ruby/object:SdtmSv
  studyid: ABC1
  usubjid: ABC1-303-11
  visitnum: 6
  visit: VISIT 5
  visitdy: 14
  svstdtc: 2014-08-16
  svendtc: 2014-08-16
  svstdy: 26
  svendy: 26
- !ruby/object:SdtmSv
  studyid: ABC1
  usubjid: ABC1-303-11
  visitnum: 7
  visit: VISIT 6
  visitdy: 14
  svstdtc: 2014-08-23
  svendtc: 2014-08-23
  svstdy: 33
  svendy: 33
ABC1-303-12:
- !ruby/object:SdtmSv
  studyid: ABC1
  usubjid: ABC1-303-12
  visitnum: 1
  visit: SCREENING
  visitdy: 14
  svstdtc: 2014-09-01
  svendtc: 2014-09-01
  svstdy: -14
  svendy: -14
- !ruby/object:SdtmSv
  studyid: ABC1
  usubjid: ABC1-303-12
  visitnum: 2
  visit: BASELINE
  visitdy: 14
  svstdtc: 2014-09-15
  svendtc: 2014-09-15
  svstdy: 0
  svendy: 0
- !ruby/object:SdtmSv
  studyid: ABC1
  usubjid: ABC1-303-12
  visitnum: 3
  visit: VISIT 2
  visitdy: 14
  svstdtc: 2014-09-21
  svendtc: 2014-09-21
  svstdy: 6
  svendy: 6
- !ruby/object:SdtmSv
  studyid: ABC1
  usubjid: ABC1-303-12
  visitnum: 4
  visit: VISIT 3
  visitdy: 14
  svstdtc: 2014-09-28
  svendtc: 2014-09-28
  svstdy: 13
  svendy: 13
- !ruby/object:SdtmSv
  studyid: ABC1
  usubjid: ABC1-303-12
  visitnum: 5
  visit: VISIT 4
  visitdy: 14
  svstdtc: 2014-10-05
  svendtc: 2014-10-05
  svstdy: 20
  svendy: 20
- !ruby/object:SdtmSv
  studyid: ABC1
  usubjid: ABC1-303-12
  visitnum: 6
  visit: VISIT 5
  visitdy: 14
  svstdtc: 2014-10-11
  svendtc: 2014-10-11
  svstdy: 26
  svendy: 26
