---
- !ruby/object:SdtmDm
  studyid: ABC1
  usubjid: ABC1-301-01
  siteid: '301'
  invnam: Dr. Mr. Enid Schowalter
  sex: M
  country: FRA
  armcd: PBO
  arm: Placebo
  actarmcd: SCRNFAIL
  actarm: Screen Failure
- !ruby/object:SdtmDm
  studyid: ABC1
  usubjid: ABC1-102-01
  siteid: '102'
  invnam: Dr. Dallas Gutkowski
  sex: M
  country: DEU
  armcd: PBO
  arm: Placebo
  actarmcd: PBO
  actarm: Placebo
  rfstdtc: 2014-03-07 13:31:15.640409946 +01:00
  rfendtc: "--placeholder--"
  age: 60
  ageu: years
- !ruby/object:SdtmDm
  studyid: ABC1
  usubjid: ABC1-301-02
  siteid: '301'
  invnam: Dr. Mr. Enid Schowalter
  sex: M
  country: FRA
  armcd: PBO
  arm: Placebo
  actarmcd: PBO
  actarm: Placebo
  rfstdtc: 2014-05-14 05:57:38.513754844 +02:00
  rfendtc: "--placeholder--"
  age: 49
  ageu: years
- !ruby/object:SdtmDm
  studyid: ABC1
  usubjid: ABC1-202-01
  siteid: '202'
  invnam: Dr. Jamarcus Watsica
  sex: M
  country: DEU
  armcd: TRT1
  arm: Treatment 1
  actarmcd: SCRNFAIL
  actarm: Screen Failure
- !ruby/object:SdtmDm
  studyid: ABC1
  usubjid: ABC1-102-02
  siteid: '102'
  invnam: Dr. Dallas Gutkowski
  sex: F
  country: DEU
  armcd: PBO
  arm: Placebo
  actarmcd: PBO
  actarm: Placebo
  rfstdtc: 2014-05-23 23:01:21.931313276 +02:00
  rfendtc: "--placeholder--"
  age: 37
  ageu: years
- !ruby/object:SdtmDm
  studyid: ABC1
  usubjid: ABC1-201-01
  siteid: '201'
  invnam: Dr. Glen Kuphal
  sex: M
  country: FRA
  armcd: PBO
  arm: Placebo
  actarmcd: PBO
  actarm: Placebo
  rfstdtc: 2014-03-24 20:09:42.213494777 +01:00
  rfendtc: "--placeholder--"
  age: 21
  ageu: years
- !ruby/object:SdtmDm
  studyid: ABC1
  usubjid: ABC1-201-02
  siteid: '201'
  invnam: Dr. Glen Kuphal
  sex: M
  country: FRA
  armcd: PBO
  arm: Placebo
  actarmcd: SCRNFAIL
  actarm: Screen Failure
- !ruby/object:SdtmDm
  studyid: ABC1
  usubjid: ABC1-303-01
  siteid: '303'
  invnam: Dr. Lenny Toy
  sex: F
  country: GBR
  armcd: PBO
  arm: Placebo
  actarmcd: SCRNFAIL
  actarm: Screen Failure
- !ruby/object:SdtmDm
  studyid: ABC1
  usubjid: ABC1-303-02
  siteid: '303'
  invnam: Dr. Lenny Toy
  sex: M
  country: GBR
  armcd: PBO
  arm: Placebo
  actarmcd: PBO
  actarm: Placebo
  rfstdtc: 2014-03-14 19:59:59.717538595 +01:00
  rfendtc: "--placeholder--"
  age: 44
  ageu: years
- !ruby/object:SdtmDm
  studyid: ABC1
  usubjid: ABC1-201-03
  siteid: '201'
  invnam: Dr. Glen Kuphal
  sex: M
  country: FRA
  armcd: TRT1
  arm: Treatment 1
  actarmcd: TRT1
  actarm: Treatment 1
  rfstdtc: 2014-05-09 23:20:21.037823200 +02:00
  rfendtc: "--placeholder--"
  age: 18
  ageu: years
- !ruby/object:SdtmDm
  studyid: ABC1
  usubjid: ABC1-201-04
  siteid: '201'
  invnam: Dr. Glen Kuphal
  sex: M
  country: FRA
  armcd: TRT1
  arm: Treatment 1
  actarmcd: SCRNFAIL
  actarm: Screen Failure
- !ruby/object:SdtmDm
  studyid: ABC1
  usubjid: ABC1-301-03
  siteid: '301'
  invnam: Dr. Mr. Enid Schowalter
  sex: M
  country: FRA
  armcd: PBO
  arm: Placebo
  actarmcd: SCRNFAIL
  actarm: Screen Failure
- !ruby/object:SdtmDm
  studyid: ABC1
  usubjid: ABC1-101-01
  siteid: '101'
  invnam: Dr. Ian Bruen
  sex: M
  country: FRA
  armcd: TRT1
  arm: Treatment 1
  actarmcd: SCRNFAIL
  actarm: Screen Failure
- !ruby/object:SdtmDm
  studyid: ABC1
  usubjid: ABC1-101-02
  siteid: '101'
  invnam: Dr. Ian Bruen
  sex: F
  country: FRA
  armcd: TRT1
  arm: Treatment 1
  actarmcd: TRT1
  actarm: Treatment 1
  rfstdtc: 2014-03-14 07:06:54.755714416 +01:00
  rfendtc: "--placeholder--"
  age: 34
  ageu: years
- !ruby/object:SdtmDm
  studyid: ABC1
  usubjid: ABC1-303-03
  siteid: '303'
  invnam: Dr. Lenny Toy
  sex: M
  country: GBR
  armcd: TRT1
  arm: Treatment 1
  actarmcd: TRT1
  actarm: Treatment 1
  rfstdtc: 2014-07-25 19:56:14.712665796 +02:00
  rfendtc: "--placeholder--"
  age: 60
  ageu: years
- !ruby/object:SdtmDm
  studyid: ABC1
  usubjid: ABC1-302-01
  siteid: '302'
  invnam: Dr. Laurence Crooks
  sex: F
  country: DEU
  armcd: TRT1
  arm: Treatment 1
  actarmcd: TRT1
  actarm: Treatment 1
  rfstdtc: 2014-03-06 11:39:38.424532413 +01:00
  rfendtc: "--placeholder--"
  age: 26
  ageu: years
- !ruby/object:SdtmDm
  studyid: ABC1
  usubjid: ABC1-202-02
  siteid: '202'
  invnam: Dr. Jamarcus Watsica
  sex: M
  country: DEU
  armcd: TRT1
  arm: Treatment 1
  actarmcd: TRT1
  actarm: Treatment 1
  rfstdtc: 2014-05-29 12:28:53.798887252 +02:00
  rfendtc: "--placeholder--"
  age: 37
  ageu: years
- !ruby/object:SdtmDm
  studyid: ABC1
  usubjid: ABC1-202-03
  siteid: '202'
  invnam: Dr. Jamarcus Watsica
  sex: F
  country: DEU
  armcd: TRT1
  arm: Treatment 1
  actarmcd: TRT1
  actarm: Treatment 1
  rfstdtc: 2014-06-02 00:02:25.240944385 +02:00
  rfendtc: "--placeholder--"
  age: 35
  ageu: years
- !ruby/object:SdtmDm
  studyid: ABC1
  usubjid: ABC1-303-04
  siteid: '303'
  invnam: Dr. Lenny Toy
  sex: F
  country: GBR
  armcd: TRT1
  arm: Treatment 1
  actarmcd: TRT1
  actarm: Treatment 1
  rfstdtc: 2014-03-06 12:37:32.586089372 +01:00
  rfendtc: "--placeholder--"
  age: 26
  ageu: years
- !ruby/object:SdtmDm
  studyid: ABC1
  usubjid: ABC1-202-04
  siteid: '202'
  invnam: Dr. Jamarcus Watsica
  sex: M
  country: DEU
  armcd: PBO
  arm: Placebo
  actarmcd: SCRNFAIL
  actarm: Screen Failure
- !ruby/object:SdtmDm
  studyid: ABC1
  usubjid: ABC1-102-03
  siteid: '102'
  invnam: Dr. Dallas Gutkowski
  sex: M
  country: DEU
  armcd: TRT1
  arm: Treatment 1
  actarmcd: SCRNFAIL
  actarm: Screen Failure
- !ruby/object:SdtmDm
  studyid: ABC1
  usubjid: ABC1-303-05
  siteid: '303'
  invnam: Dr. Lenny Toy
  sex: F
  country: GBR
  armcd: TRT1
  arm: Treatment 1
  actarmcd: TRT1
  actarm: Treatment 1
  rfstdtc: 2014-04-24 11:18:30.624413013 +02:00
  rfendtc: "--placeholder--"
  age: 62
  ageu: years
- !ruby/object:SdtmDm
  studyid: ABC1
  usubjid: ABC1-301-04
  siteid: '301'
  invnam: Dr. Mr. Enid Schowalter
  sex: F
  country: FRA
  armcd: PBO
  arm: Placebo
  actarmcd: PBO
  actarm: Placebo
  rfstdtc: 2014-07-08 06:47:22.464362144 +02:00
  rfendtc: "--placeholder--"
  age: 45
  ageu: years
- !ruby/object:SdtmDm
  studyid: ABC1
  usubjid: ABC1-301-05
  siteid: '301'
  invnam: Dr. Mr. Enid Schowalter
  sex: M
  country: FRA
  armcd: TRT1
  arm: Treatment 1
  actarmcd: SCRNFAIL
  actarm: Screen Failure
- !ruby/object:SdtmDm
  studyid: ABC1
  usubjid: ABC1-202-05
  siteid: '202'
  invnam: Dr. Jamarcus Watsica
  sex: F
  country: DEU
  armcd: TRT1
  arm: Treatment 1
  actarmcd: TRT1
  actarm: Treatment 1
  rfstdtc: 2014-03-28 10:31:37.569991588 +01:00
  rfendtc: "--placeholder--"
  age: 53
  ageu: years
- !ruby/object:SdtmDm
  studyid: ABC1
  usubjid: ABC1-201-05
  siteid: '201'
  invnam: Dr. Glen Kuphal
  sex: M
  country: FRA
  armcd: PBO
  arm: Placebo
  actarmcd: SCRNFAIL
  actarm: Screen Failure
- !ruby/object:SdtmDm
  studyid: ABC1
  usubjid: ABC1-103-01
  siteid: '103'
  invnam: Dr. Augusta Kulas DVM
  sex: M
  country: GBR
  armcd: TRT1
  arm: Treatment 1
  actarmcd: SCRNFAIL
  actarm: Screen Failure
- !ruby/object:SdtmDm
  studyid: ABC1
  usubjid: ABC1-101-03
  siteid: '101'
  invnam: Dr. Ian Bruen
  sex: F
  country: FRA
  armcd: TRT1
  arm: Treatment 1
  actarmcd: TRT1
  actarm: Treatment 1
  rfstdtc: 2014-04-22 18:11:39.029527664 +02:00
  rfendtc: "--placeholder--"
  age: 26
  ageu: years
- !ruby/object:SdtmDm
  studyid: ABC1
  usubjid: ABC1-101-04
  siteid: '101'
  invnam: Dr. Ian Bruen
  sex: F
  country: FRA
  armcd: PBO
  arm: Placebo
  actarmcd: SCRNFAIL
  actarm: Screen Failure
- !ruby/object:SdtmDm
  studyid: ABC1
  usubjid: ABC1-102-04
  siteid: '102'
  invnam: Dr. Dallas Gutkowski
  sex: M
  country: DEU
  armcd: PBO
  arm: Placebo
  actarmcd: PBO
  actarm: Placebo
  rfstdtc: 2014-03-26 13:04:56.422925472 +01:00
  rfendtc: "--placeholder--"
  age: 19
  ageu: years
