studyid,usubjid,aeterm,aedecod,aebodsys,aesev,aeser,aestdtc,aestdy,aeseq,aeendtc,aeendy,age,sex,country,arm,armcd,actarmcd,invnam,siteid
ABC001,ABC001-101-01,Sed voluptatibus odio tempore consectetur id nam.,Headache,Neurological disorders,Mild,N,2014-06-21,9,1,,,37,M,FRA,Placebo,PBO,PBO,Dr. Guillermo Watsica,101
ABC001,ABC001-101-01,Totam incidunt architecto culpa labore fuga.,Migraine,Neurological disorders,Mild,N,2014-06-13,1,2,,,37,M,FRA,Placebo,PBO,PBO,Dr. Guillermo Watsica,101
ABC001,ABC001-101-02,Aut inventore fuga praesentium quam eligendi.,Dyspnoea,Respiratory tract disorders,Mild,N,2014-09-28,-13,3,,,37,M,FRA,Treatment 10mg,TRTA,TRTA,Dr. Guillermo Watsica,101
ABC001,ABC001-101-02,Nemo et nisi corporis voluptas.,Migraine,Neurological disorders,Mild,N,2014-10-17,6,4,,,37,M,FRA,Treatment 10mg,TRTA,TRTA,Dr. Guillermo Watsica,101
ABC001,ABC001-101-02,Tempora harum illo dicta expedita vero.,Dyspnoea,Respiratory tract disorders,Mild,N,2014-10-04,-7,5,2014-11-02,22,37,M,FRA,Treatment 10mg,TRTA,TRTA,Dr. Guillermo Watsica,101
ABC001,ABC001-101-03,Rerum quibusdam quis.,Lethargy,Systemic disorders,Mild,Y,2014-05-19,45,6,2014-05-20,46,56,F,FRA,Treatment 10mg,TRTA,TRTA,Dr. Guillermo Watsica,101
ABC001,ABC001-101-03,Non possimus quos.,Recumbency,Systemic disorders,Mild,N,2014-06-07,64,7,2014-06-07,64,56,F,FRA,Treatment 10mg,TRTA,TRTA,Dr. Guillermo Watsica,101
ABC001,ABC001-101-04,Eos id sint.,Apnoea,Respiratory tract disorders,Mild,N,2014-04-28,19,8,,,49,F,FRA,Treatment 10mg,TRTA,TRTA,Dr. Guillermo Watsica,101
ABC001,ABC001-101-04,Vitae itaque sapiente cum sunt voluptatem nam.,Headache,Neurological disorders,Mild,N,2014-04-19,10,9,,,49,F,FRA,Treatment 10mg,TRTA,TRTA,Dr. Guillermo Watsica,101
ABC001,ABC001-101-04,Nihil assumenda temporibus quo dolorem qui quas.,Disorientation,Behavioural disorders,Mild,N,2014-06-20,72,10,2014-06-21,73,49,F,FRA,Treatment 10mg,TRTA,TRTA,Dr. Guillermo Watsica,101
ABC001,ABC001-101-04,Laudantium dignissimos.,Migraine,Neurological disorders,Mild,N,2014-03-30,-10,11,,,49,F,FRA,Treatment 10mg,TRTA,TRTA,Dr. Guillermo Watsica,101
ABC001,ABC001-101-04,Facere animi et.,Disorientation,Behavioural disorders,Severe,Y,2014-04-21,12,12,,,49,F,FRA,Treatment 10mg,TRTA,TRTA,Dr. Guillermo Watsica,101
ABC001,ABC001-101-04,Quo aut animi voluptatibus.,Apnoea,Respiratory tract disorders,Mild,N,2014-06-17,69,13,2014-06-18,70,49,F,FRA,Treatment 10mg,TRTA,TRTA,Dr. Guillermo Watsica,101
ABC001,ABC001-101-05,Rerum id labore consequuntur explicabo.,Lethargy,Systemic disorders,Mild,N,2014-04-05,15,14,2014-04-21,31,36,F,FRA,Treatment 10mg,TRTA,TRTA,Dr. Guillermo Watsica,101
ABC001,ABC001-101-05,Quibusdam hic.,Disorientation,Behavioural disorders,Severe,N,2014-04-19,29,15,,,36,F,FRA,Treatment 10mg,TRTA,TRTA,Dr. Guillermo Watsica,101
ABC001,ABC001-101-05,Voluptas sunt praesentium dolorem est eum id.,Headache,Neurological disorders,Mild,N,2014-04-03,13,16,,,36,F,FRA,Treatment 10mg,TRTA,TRTA,Dr. Guillermo Watsica,101
ABC001,ABC001-101-05,Et tempore vero facere qui adipisci quae.,Lethargy,Systemic disorders,Mild,N,2014-03-26,5,17,2014-04-20,30,36,F,FRA,Treatment 10mg,TRTA,TRTA,Dr. Guillermo Watsica,101
ABC001,ABC001-101-05,Ad ipsam at accusamus.,Disorientation,Behavioural disorders,Mild,N,2014-03-26,5,18,,,36,F,FRA,Treatment 10mg,TRTA,TRTA,Dr. Guillermo Watsica,101
ABC001,ABC001-101-05,Eaque neque est non est.,Lethargy,Systemic disorders,Mild,N,2014-03-21,0,19,2014-04-28,38,36,F,FRA,Treatment 10mg,TRTA,TRTA,Dr. Guillermo Watsica,101
ABC001,ABC001-102-01,Et dolorum.,Recumbency,Systemic disorders,Mild,N,2014-05-19,0,20,,,40,F,FRA,Placebo,PBO,PBO,Dr. Fae Abernathy DDS,102
ABC001,ABC001-102-02,Perferendis nemo alias.,Recumbency,Systemic disorders,Mild,N,2014-07-15,-8,21,,,54,F,FRA,Treatment 50mg,TRTB,TRTB,Dr. Fae Abernathy DDS,102
ABC001,ABC001-102-02,Non in in qui.,Sedation,Neurological disorders,Mild,N,2014-09-27,66,22,2014-09-27,66,54,F,FRA,Treatment 50mg,TRTB,TRTB,Dr. Fae Abernathy DDS,102
ABC001,ABC001-102-03,Voluptatem et eos necessitatibus est.,Lethargy,Systemic disorders,Mild,N,2014-04-19,,23,,,37,F,FRA,Treatment 50mg,TRTB,SCRNFAIL,Dr. Fae Abernathy DDS,102
ABC001,ABC001-102-04,Harum porro quia esse sit veritatis et.,Dyspnoea,Respiratory tract disorders,Mild,N,2014-08-06,-7,24,2014-09-03,21,49,F,FRA,Placebo,PBO,PBO,Dr. Fae Abernathy DDS,102
ABC001,ABC001-102-04,Sint eaque rerum excepturi recusandae.,Lethargy,Systemic disorders,Mild,N,2014-10-04,52,25,2014-10-16,64,49,F,FRA,Placebo,PBO,PBO,Dr. Fae Abernathy DDS,102
ABC001,ABC001-102-04,Voluptatibus autem.,Lethargy,Systemic disorders,Mild,N,2014-08-01,-12,26,2014-08-29,16,49,F,FRA,Placebo,PBO,PBO,Dr. Fae Abernathy DDS,102
ABC001,ABC001-102-04,Ab quo enim.,Disorientation,Behavioural disorders,Mild,N,2014-09-22,40,27,,,49,F,FRA,Placebo,PBO,PBO,Dr. Fae Abernathy DDS,102
ABC001,ABC001-102-05,Iste nam et inventore voluptatum sit.,Headache,Neurological disorders,Severe,N,2014-04-14,18,28,2014-05-02,36,37,M,FRA,Treatment 100mg,TRTC,TRTC,Dr. Fae Abernathy DDS,102
ABC001,ABC001-102-05,In consequatur laborum molestias.,Teeth grinding,Behavioural disorders,Severe,N,2014-04-09,13,29,2014-05-11,45,37,M,FRA,Treatment 100mg,TRTC,TRTC,Dr. Fae Abernathy DDS,102
ABC001,ABC001-102-05,Iure doloremque eius minus quia.,Headache,Neurological disorders,Mild,Y,2014-03-23,-4,30,2014-04-02,6,37,M,FRA,Treatment 100mg,TRTC,TRTC,Dr. Fae Abernathy DDS,102
ABC001,ABC001-102-05,Rem ab.,Headache,Neurological disorders,Severe,N,2014-06-03,68,31,2014-06-03,68,37,M,FRA,Treatment 100mg,TRTC,TRTC,Dr. Fae Abernathy DDS,102
ABC001,ABC001-102-05,Ut est ab in sequi quam.,Disorientation,Behavioural disorders,Mild,N,2014-04-19,23,32,,,37,M,FRA,Treatment 100mg,TRTC,TRTC,Dr. Fae Abernathy DDS,102
ABC001,ABC001-102-05,Corrupti quo non.,Headache,Neurological disorders,Mild,N,2014-03-15,-12,33,2014-03-15,-12,37,M,FRA,Treatment 100mg,TRTC,TRTC,Dr. Fae Abernathy DDS,102
ABC001,ABC001-102-05,Dolorem vel facilis cumque sint recusandae.,Malaise,Systemic disorders,Mild,N,2014-04-17,21,34,,,37,M,FRA,Treatment 100mg,TRTC,TRTC,Dr. Fae Abernathy DDS,102
ABC001,ABC001-102-05,Dolore libero unde placeat dolorem magni quia.,Apnoea,Respiratory tract disorders,Mild,N,2014-04-14,18,35,,,37,M,FRA,Treatment 100mg,TRTC,TRTC,Dr. Fae Abernathy DDS,102
ABC001,ABC001-102-05,Earum et voluptatem.,Lethargy,Systemic disorders,Mild,N,2014-05-24,58,36,,,37,M,FRA,Treatment 100mg,TRTC,TRTC,Dr. Fae Abernathy DDS,102
ABC001,ABC001-102-05,Et ipsam eaque.,Pruritus,Skin and appendages disorders,Mild,Y,2014-04-09,13,37,,,37,M,FRA,Treatment 100mg,TRTC,TRTC,Dr. Fae Abernathy DDS,102
ABC001,ABC001-102-05,In velit dolores.,Pruritus,Skin and appendages disorders,Mild,Y,2014-04-15,19,38,2014-05-19,53,37,M,FRA,Treatment 100mg,TRTC,TRTC,Dr. Fae Abernathy DDS,102
ABC001,ABC001-102-05,Quia tempore animi perspiciatis aut.,Headache,Neurological disorders,Mild,N,2014-04-23,27,39,2014-05-21,55,37,M,FRA,Treatment 100mg,TRTC,TRTC,Dr. Fae Abernathy DDS,102
ABC001,ABC001-102-05,Dolore non sit laudantium atque culpa.,Headache,Neurological disorders,Severe,Y,2014-05-23,57,40,,,37,M,FRA,Treatment 100mg,TRTC,TRTC,Dr. Fae Abernathy DDS,102
ABC001,ABC001-102-05,Et incidunt.,Migraine,Neurological disorders,Mild,N,2014-04-23,27,41,,,37,M,FRA,Treatment 100mg,TRTC,TRTC,Dr. Fae Abernathy DDS,102
ABC001,ABC001-102-05,Dolores quasi rerum sit.,Lethargy,Systemic disorders,Severe,N,2014-04-08,12,42,2014-05-02,36,37,M,FRA,Treatment 100mg,TRTC,TRTC,Dr. Fae Abernathy DDS,102
ABC001,ABC001-102-05,Iure nobis eligendi est amet dolorum blanditiis.,Apnoea,Respiratory tract disorders,Severe,N,2014-03-16,-11,43,2014-05-25,59,37,M,FRA,Treatment 100mg,TRTC,TRTC,Dr. Fae Abernathy DDS,102
ABC001,ABC001-102-05,Vel expedita.,Migraine,Neurological disorders,Severe,N,2014-04-19,23,44,2014-05-27,61,37,M,FRA,Treatment 100mg,TRTC,TRTC,Dr. Fae Abernathy DDS,102
ABC001,ABC001-102-05,Ea dolores libero sit.,Recumbency,Systemic disorders,Mild,Y,2014-04-04,8,45,2014-06-02,67,37,M,FRA,Treatment 100mg,TRTC,TRTC,Dr. Fae Abernathy DDS,102
ABC001,ABC001-102-05,Voluptatum laudantium eligendi non et est.,Lethargy,Systemic disorders,Mild,N,2014-04-05,9,46,2014-06-02,67,37,M,FRA,Treatment 100mg,TRTC,TRTC,Dr. Fae Abernathy DDS,102
ABC001,ABC001-103-01,Sit ratione.,Disorientation,Behavioural disorders,Mild,Y,2014-04-16,40,47,2014-04-22,46,61,M,FRA,Treatment 10mg,TRTA,TRTA,Dr. Cassidy Swift III,103
ABC001,ABC001-103-01,Aliquam sit.,Malaise,Systemic disorders,Mild,N,2014-02-27,-8,48,,,61,M,FRA,Treatment 10mg,TRTA,TRTA,Dr. Cassidy Swift III,103
ABC001,ABC001-103-02,Qui ea et.,Disorientation,Behavioural disorders,Mild,N,2014-03-18,-14,49,2014-04-08,7,34,M,FRA,Treatment 50mg,TRTB,TRTB,Dr. Cassidy Swift III,103
ABC001,ABC001-103-02,Quam vel qui.,Migraine,Neurological disorders,Severe,N,2014-04-15,14,50,,,34,M,FRA,Treatment 50mg,TRTB,TRTB,Dr. Cassidy Swift III,103
ABC001,ABC001-103-03,Modi animi autem.,Sedation,Neurological disorders,Mild,N,2014-11-15,3,51,2014-11-19,7,50,M,FRA,Treatment 10mg,TRTA,TRTA,Dr. Cassidy Swift III,103
ABC001,ABC001-103-04,Et incidunt et itaque asperiores vitae.,Headache,Neurological disorders,Mild,N,2014-08-25,66,52,2014-08-30,71,41,F,FRA,Treatment 50mg,TRTB,TRTB,Dr. Cassidy Swift III,103
ABC001,ABC001-103-04,Vel sint perferendis.,Migraine,Neurological disorders,Mild,N,2014-06-25,5,53,,,41,F,FRA,Treatment 50mg,TRTB,TRTB,Dr. Cassidy Swift III,103
ABC001,ABC001-103-04,Quo nihil accusantium debitis.,Malaise,Systemic disorders,Mild,N,2014-06-19,-1,54,2014-08-24,65,41,F,FRA,Treatment 50mg,TRTB,TRTB,Dr. Cassidy Swift III,103
ABC001,ABC001-103-04,Consequatur corrupti tempore occaecati nisi ut ut.,Migraine,Neurological disorders,Severe,N,2014-07-22,32,55,2014-08-14,55,41,F,FRA,Treatment 50mg,TRTB,TRTB,Dr. Cassidy Swift III,103
ABC001,ABC001-103-04,Consectetur aut facilis dignissimos.,Migraine,Neurological disorders,Mild,N,2014-08-02,43,56,2014-08-29,70,41,F,FRA,Treatment 50mg,TRTB,TRTB,Dr. Cassidy Swift III,103
ABC001,ABC001-103-04,Suscipit nihil.,Migraine,Neurological disorders,Mild,Y,2014-06-29,9,57,2014-07-26,36,41,F,FRA,Treatment 50mg,TRTB,TRTB,Dr. Cassidy Swift III,103
ABC001,ABC001-103-04,Molestiae ab quisquam magni id dolor ipsum.,Migraine,Neurological disorders,Mild,N,2014-07-18,28,58,,,41,F,FRA,Treatment 50mg,TRTB,TRTB,Dr. Cassidy Swift III,103
ABC001,ABC001-103-04,Laudantium libero ut.,Migraine,Neurological disorders,Mild,N,2014-08-04,45,59,2014-08-21,62,41,F,FRA,Treatment 50mg,TRTB,TRTB,Dr. Cassidy Swift III,103
ABC001,ABC001-201-01,Beatae et iusto ut.,Lethargy,Systemic disorders,Mild,N,2014-02-22,-12,60,,,36,F,DEU,Treatment 10mg,TRTA,TRTA,Dr. Charley Ortiz,201
ABC001,ABC001-201-02,Qui totam.,Teeth grinding,Behavioural disorders,Mild,N,2014-05-31,18,61,,,64,M,DEU,Treatment 10mg,TRTA,TRTA,Dr. Charley Ortiz,201
ABC001,ABC001-201-02,Inventore tempora quibusdam.,Malaise,Systemic disorders,Mild,N,2014-05-11,-2,62,,,64,M,DEU,Treatment 10mg,TRTA,TRTA,Dr. Charley Ortiz,201
ABC001,ABC001-201-02,Voluptatem sed consequatur quia sed.,Migraine,Neurological disorders,Mild,Y,2014-06-10,28,63,,,64,M,DEU,Treatment 10mg,TRTA,TRTA,Dr. Charley Ortiz,201
ABC001,ABC001-201-03,Consequatur iure ipsa et molestiae autem.,Teeth grinding,Behavioural disorders,Severe,Y,2014-04-14,31,64,2014-05-11,58,44,M,DEU,Treatment 50mg,TRTB,TRTB,Dr. Charley Ortiz,201
ABC001,ABC001-201-03,Et necessitatibus ab ipsum vitae illo.,Migraine,Neurological disorders,Mild,Y,2014-03-03,-11,65,2014-05-07,54,44,M,DEU,Treatment 50mg,TRTB,TRTB,Dr. Charley Ortiz,201
ABC001,ABC001-201-03,Corrupti quam sunt.,Migraine,Neurological disorders,Mild,N,2014-04-12,29,66,,,44,M,DEU,Treatment 50mg,TRTB,TRTB,Dr. Charley Ortiz,201
ABC001,ABC001-201-03,Iusto assumenda similique sequi non.,Teeth grinding,Behavioural disorders,Mild,N,2014-03-03,-11,67,2014-03-17,3,44,M,DEU,Treatment 50mg,TRTB,TRTB,Dr. Charley Ortiz,201
ABC001,ABC001-201-05,Est fugit veniam.,Headache,Neurological disorders,Severe,Y,2014-08-23,64,68,2014-08-25,66,20,F,DEU,Treatment 100mg,TRTC,TRTC,Dr. Charley Ortiz,201
ABC001,ABC001-201-05,Vel minus mollitia.,Recumbency,Systemic disorders,Mild,N,2014-06-19,-1,69,,,20,F,DEU,Treatment 100mg,TRTC,TRTC,Dr. Charley Ortiz,201
ABC001,ABC001-201-05,Aliquid delectus sit qui non doloribus consectetur.,Lethargy,Systemic disorders,Mild,N,2014-07-20,30,70,,,20,F,DEU,Treatment 100mg,TRTC,TRTC,Dr. Charley Ortiz,201
ABC001,ABC001-201-05,Nulla laboriosam.,Lethargy,Systemic disorders,Mild,N,2014-07-27,37,71,2014-08-23,64,20,F,DEU,Treatment 100mg,TRTC,TRTC,Dr. Charley Ortiz,201
ABC001,ABC001-201-05,Quidem saepe quis hic doloremque.,Headache,Neurological disorders,Mild,Y,2014-07-02,12,72,,,20,F,DEU,Treatment 100mg,TRTC,TRTC,Dr. Charley Ortiz,201
ABC001,ABC001-201-05,Eius unde qui explicabo repellendus maxime modi.,Dermatitis and eczema,Skin and appendages disorders,Severe,N,2014-08-10,51,73,,,20,F,DEU,Treatment 100mg,TRTC,TRTC,Dr. Charley Ortiz,201
ABC001,ABC001-201-05,Quidem est dolores.,Disorientation,Behavioural disorders,Mild,N,2014-06-12,-8,74,2014-08-03,44,20,F,DEU,Treatment 100mg,TRTC,TRTC,Dr. Charley Ortiz,201
ABC001,ABC001-201-05,Ea qui velit.,Disorientation,Behavioural disorders,Mild,N,2014-08-27,68,75,2014-08-27,68,20,F,DEU,Treatment 100mg,TRTC,TRTC,Dr. Charley Ortiz,201
ABC001,ABC001-202-01,Quo possimus labore dolorem officia.,Dyspnoea,Respiratory tract disorders,Mild,N,2014-11-14,-5,76,2014-11-14,-5,31,F,DEU,Treatment 50mg,TRTB,TRTB,Dr. Mr. Gustave Cartwright,202
ABC001,ABC001-202-02,Quisquam nulla atque nihil.,Migraine,Neurological disorders,Mild,N,2015-01-14,16,77,2015-01-15,17,22,F,DEU,Placebo,PBO,PBO,Dr. Mr. Gustave Cartwright,202
ABC001,ABC001-202-02,Quod autem.,Disorientation,Behavioural disorders,Mild,Y,2015-01-08,10,78,2015-01-18,20,22,F,DEU,Placebo,PBO,PBO,Dr. Mr. Gustave Cartwright,202
ABC001,ABC001-202-02,Quia pariatur aliquid et.,Pruritus,Skin and appendages disorders,Mild,N,2015-01-19,21,79,,,22,F,DEU,Placebo,PBO,PBO,Dr. Mr. Gustave Cartwright,202
ABC001,ABC001-202-02,Modi odit.,Malaise,Systemic disorders,Mild,N,2015-01-09,11,80,2015-01-16,18,22,F,DEU,Placebo,PBO,PBO,Dr. Mr. Gustave Cartwright,202
ABC001,ABC001-202-02,Non quis velit explicabo.,Headache,Neurological disorders,Mild,N,2014-12-15,-14,81,2014-12-16,-13,22,F,DEU,Placebo,PBO,PBO,Dr. Mr. Gustave Cartwright,202
ABC001,ABC001-202-02,Cumque officia.,Headache,Neurological disorders,Mild,N,2014-12-30,1,82,2015-01-09,11,22,F,DEU,Placebo,PBO,PBO,Dr. Mr. Gustave Cartwright,202
ABC001,ABC001-203-01,Libero necessitatibus voluptate.,Lethargy,Systemic disorders,Mild,N,2014-04-26,25,83,,,21,F,DEU,Treatment 10mg,TRTA,TRTA,Dr. Chelsie Legros,203
ABC001,ABC001-203-03,Dicta voluptatum aut ut odit.,Increased intracranial pressure,Neurological disorders,Severe,N,2014-08-18,41,84,2014-09-12,66,30,F,DEU,Treatment 50mg,TRTB,TRTB,Dr. Chelsie Legros,203
ABC001,ABC001-203-03,Sed non velit unde sunt cupiditate.,Headache,Neurological disorders,Severe,N,2014-07-25,17,85,,,30,F,DEU,Treatment 50mg,TRTB,TRTB,Dr. Chelsie Legros,203
ABC001,ABC001-203-03,Corrupti alias ex fuga asperiores veritatis eum.,Lethargy,Systemic disorders,Severe,N,2014-08-15,38,86,2014-09-07,61,30,F,DEU,Treatment 50mg,TRTB,TRTB,Dr. Chelsie Legros,203
ABC001,ABC001-203-03,Est dolore.,Disorientation,Behavioural disorders,Severe,N,2014-08-04,27,87,2014-08-08,31,30,F,DEU,Treatment 50mg,TRTB,TRTB,Dr. Chelsie Legros,203
ABC001,ABC001-203-03,Voluptatem ipsa maiores enim et.,Migraine,Neurological disorders,Mild,N,2014-08-11,34,88,2014-08-25,48,30,F,DEU,Treatment 50mg,TRTB,TRTB,Dr. Chelsie Legros,203
ABC001,ABC001-203-03,Quibusdam est praesentium quas aut necessitatibus.,Headache,Neurological disorders,Mild,N,2014-07-15,7,89,,,30,F,DEU,Treatment 50mg,TRTB,TRTB,Dr. Chelsie Legros,203
ABC001,ABC001-203-03,Necessitatibus dolore quidem corporis ratione vero.,Disorientation,Behavioural disorders,Mild,N,2014-08-25,48,90,2014-09-12,66,30,F,DEU,Treatment 50mg,TRTB,TRTB,Dr. Chelsie Legros,203
ABC001,ABC001-301-01,Qui quo deleniti quaerat aut nulla.,Disorientation,Behavioural disorders,Mild,N,2014-07-01,-5,91,,,40,F,GBR,Treatment 100mg,TRTC,TRTC,Dr. Martine Ratke,301
ABC001,ABC001-301-01,Ut sunt ex perferendis.,Dyspnoea,Respiratory tract disorders,Mild,Y,2014-07-21,15,92,,,40,F,GBR,Treatment 100mg,TRTC,TRTC,Dr. Martine Ratke,301
ABC001,ABC001-301-01,Est debitis.,Pruritus,Skin and appendages disorders,Mild,Y,2014-07-23,17,93,2014-07-27,21,40,F,GBR,Treatment 100mg,TRTC,TRTC,Dr. Martine Ratke,301
ABC001,ABC001-301-01,Unde eos est in et quia.,Migraine,Neurological disorders,Mild,N,2014-07-25,19,94,2014-08-03,28,40,F,GBR,Treatment 100mg,TRTC,TRTC,Dr. Martine Ratke,301
ABC001,ABC001-301-02,Id autem qui.,Apnoea,Respiratory tract disorders,Mild,N,2014-05-24,-10,95,,,62,M,GBR,Treatment 10mg,TRTA,TRTA,Dr. Martine Ratke,301
ABC001,ABC001-301-02,Sint doloremque ducimus repudiandae.,Disorientation,Behavioural disorders,Mild,Y,2014-07-06,33,96,2014-07-17,44,62,M,GBR,Treatment 10mg,TRTA,TRTA,Dr. Martine Ratke,301
ABC001,ABC001-301-02,Reiciendis saepe sint reprehenderit.,Dyspnoea,Respiratory tract disorders,Mild,N,2014-06-19,16,97,,,62,M,GBR,Treatment 10mg,TRTA,TRTA,Dr. Martine Ratke,301
ABC001,ABC001-301-02,Impedit hic voluptas ipsam.,Teeth grinding,Behavioural disorders,Mild,N,2014-06-18,15,98,,,62,M,GBR,Treatment 10mg,TRTA,TRTA,Dr. Martine Ratke,301
ABC001,ABC001-301-02,Quia error nulla.,Disorientation,Behavioural disorders,Mild,Y,2014-06-25,22,99,,,62,M,GBR,Treatment 10mg,TRTA,TRTA,Dr. Martine Ratke,301
ABC001,ABC001-301-02,Est nam expedita autem ut.,Malaise,Systemic disorders,Mild,N,2014-07-18,45,100,2014-07-26,53,62,M,GBR,Treatment 10mg,TRTA,TRTA,Dr. Martine Ratke,301
ABC001,ABC001-301-02,Sit quisquam quia.,Migraine,Neurological disorders,Mild,N,2014-06-29,26,101,,,62,M,GBR,Treatment 10mg,TRTA,TRTA,Dr. Martine Ratke,301
ABC001,ABC001-301-02,Delectus enim illum animi voluptate sint.,Lethargy,Systemic disorders,Mild,N,2014-06-06,3,102,2014-06-15,12,62,M,GBR,Treatment 10mg,TRTA,TRTA,Dr. Martine Ratke,301
ABC001,ABC001-301-02,Suscipit excepturi maiores.,Teeth grinding,Behavioural disorders,Mild,N,2014-06-09,6,103,2014-07-02,29,62,M,GBR,Treatment 10mg,TRTA,TRTA,Dr. Martine Ratke,301
ABC001,ABC001-301-02,Consequatur beatae totam sed.,Migraine,Neurological disorders,Mild,N,2014-07-07,34,104,2014-07-21,48,62,M,GBR,Treatment 10mg,TRTA,TRTA,Dr. Martine Ratke,301
ABC001,ABC001-301-03,Praesentium corporis debitis.,Sedation,Neurological disorders,Mild,Y,2014-05-13,21,105,2014-05-18,26,23,M,GBR,Treatment 100mg,TRTC,TRTC,Dr. Martine Ratke,301
ABC001,ABC001-301-03,Eum excepturi magni dolor eum voluptatem.,Apnoea,Respiratory tract disorders,Severe,N,2014-04-30,8,106,,,23,M,GBR,Treatment 100mg,TRTC,TRTC,Dr. Martine Ratke,301
ABC001,ABC001-302-01,Illum id sequi mollitia voluptatem ex non.,Lethargy,Systemic disorders,Mild,N,2014-05-03,12,107,2014-05-13,22,25,F,GBR,Placebo,PBO,PBO,Dr. Jazmin Reinger,302
ABC001,ABC001-302-02,Aliquid quia tenetur id.,Malaise,Systemic disorders,Mild,N,2014-05-07,-4,108,,,35,M,GBR,Treatment 10mg,TRTA,TRTA,Dr. Jazmin Reinger,302
ABC001,ABC001-302-02,Necessitatibus et tempora cupiditate doloribus veniam.,Migraine,Neurological disorders,Mild,N,2014-06-21,41,109,2014-07-17,67,35,M,GBR,Treatment 10mg,TRTA,TRTA,Dr. Jazmin Reinger,302
ABC001,ABC001-302-02,Beatae asperiores.,Lethargy,Systemic disorders,Mild,N,2014-06-06,26,110,2014-07-02,52,35,M,GBR,Treatment 10mg,TRTA,TRTA,Dr. Jazmin Reinger,302
ABC001,ABC001-302-02,Architecto enim sequi libero.,Disorientation,Behavioural disorders,Mild,N,2014-07-05,55,111,,,35,M,GBR,Treatment 10mg,TRTA,TRTA,Dr. Jazmin Reinger,302
ABC001,ABC001-302-02,Quis in voluptatem qui exercitationem consequatur atque.,Headache,Neurological disorders,Mild,N,2014-05-31,20,112,2014-07-11,61,35,M,GBR,Treatment 10mg,TRTA,TRTA,Dr. Jazmin Reinger,302
ABC001,ABC001-302-03,In sequi consequatur nesciunt qui molestias.,Headache,Neurological disorders,Mild,N,2014-03-17,2,113,,,23,M,GBR,Treatment 100mg,TRTC,TRTC,Dr. Jazmin Reinger,302
ABC001,ABC001-302-03,Ut architecto.,Migraine,Neurological disorders,Severe,N,2014-03-12,-3,114,2014-03-25,10,23,M,GBR,Treatment 100mg,TRTC,TRTC,Dr. Jazmin Reinger,302
ABC001,ABC001-302-03,Reprehenderit rem consequuntur ea possimus.,Lethargy,Systemic disorders,Mild,N,2014-03-21,6,115,,,23,M,GBR,Treatment 100mg,TRTC,TRTC,Dr. Jazmin Reinger,302
ABC001,ABC001-302-03,Deserunt animi dolores rerum esse.,Headache,Neurological disorders,Mild,N,2014-03-23,8,116,2014-03-23,8,23,M,GBR,Treatment 100mg,TRTC,TRTC,Dr. Jazmin Reinger,302
ABC001,ABC001-302-04,Voluptatem atque doloremque.,Lethargy,Systemic disorders,Mild,N,2014-08-06,36,117,,,41,M,GBR,Treatment 10mg,TRTA,TRTA,Dr. Jazmin Reinger,302
ABC001,ABC001-302-04,Consequatur tempore.,Disorientation,Behavioural disorders,Mild,N,2014-08-14,44,118,2014-08-22,52,41,M,GBR,Treatment 10mg,TRTA,TRTA,Dr. Jazmin Reinger,302
ABC001,ABC001-302-04,Iusto omnis molestiae mollitia distinctio.,Dyspnoea,Respiratory tract disorders,Mild,N,2014-08-14,44,119,,,41,M,GBR,Treatment 10mg,TRTA,TRTA,Dr. Jazmin Reinger,302
ABC001,ABC001-302-04,Dolorum quis sequi autem eos commodi.,Vocalisation,Behavioural disorders,Mild,N,2014-07-23,22,120,2014-08-07,37,41,M,GBR,Treatment 10mg,TRTA,TRTA,Dr. Jazmin Reinger,302
ABC001,ABC001-303-01,Rerum eos.,Headache,Neurological disorders,Mild,Y,2014-05-13,13,121,,,44,M,GBR,Treatment 100mg,TRTC,TRTC,Dr. Kaitlin Mertz,303
ABC001,ABC001-303-01,Ea est possimus.,Lethargy,Systemic disorders,Mild,N,2014-06-28,59,122,2014-07-07,68,44,M,GBR,Treatment 100mg,TRTC,TRTC,Dr. Kaitlin Mertz,303
ABC001,ABC001-303-01,Totam distinctio provident sunt facilis.,Migraine,Neurological disorders,Mild,N,2014-05-13,13,123,2014-06-16,47,44,M,GBR,Treatment 100mg,TRTC,TRTC,Dr. Kaitlin Mertz,303
ABC001,ABC001-303-01,Perferendis consequatur.,Lethargy,Systemic disorders,Mild,N,2014-04-20,-10,124,2014-05-24,24,44,M,GBR,Treatment 100mg,TRTC,TRTC,Dr. Kaitlin Mertz,303
ABC001,ABC001-303-01,Dolore quas.,Apnoea,Respiratory tract disorders,Mild,N,2014-05-08,8,125,,,44,M,GBR,Treatment 100mg,TRTC,TRTC,Dr. Kaitlin Mertz,303
ABC001,ABC001-303-01,Dolorum quidem.,Migraine,Neurological disorders,Mild,N,2014-05-07,7,126,,,44,M,GBR,Treatment 100mg,TRTC,TRTC,Dr. Kaitlin Mertz,303
ABC001,ABC001-303-02,Vel quia et.,Teeth grinding,Behavioural disorders,Severe,N,2014-07-01,-5,127,,,35,F,GBR,Treatment 100mg,TRTC,TRTC,Dr. Kaitlin Mertz,303
ABC001,ABC001-303-02,Dolor at distinctio asperiores.,Headache,Neurological disorders,Severe,N,2014-08-19,44,128,2014-08-28,53,35,F,GBR,Treatment 100mg,TRTC,TRTC,Dr. Kaitlin Mertz,303
ABC001,ABC001-303-02,Ad qui exercitationem fuga ab perferendis.,Lethargy,Systemic disorders,Severe,Y,2014-08-12,37,129,,,35,F,GBR,Treatment 100mg,TRTC,TRTC,Dr. Kaitlin Mertz,303
ABC001,ABC001-303-02,Porro distinctio qui velit tempore id.,Disorientation,Behavioural disorders,Mild,N,2014-07-20,14,130,,,35,F,GBR,Treatment 100mg,TRTC,TRTC,Dr. Kaitlin Mertz,303
ABC001,ABC001-303-03,Commodi est pariatur autem illum.,Headache,Neurological disorders,Mild,N,2014-10-19,-6,131,2014-10-25,0,32,M,GBR,Placebo,PBO,PBO,Dr. Kaitlin Mertz,303
ABC001,ABC001-303-04,Dolor voluptatibus harum ut delectus mollitia.,Pruritus,Skin and appendages disorders,Mild,N,2014-05-02,,132,2014-05-02,,49,F,GBR,Placebo,PBO,SCRNFAIL,Dr. Kaitlin Mertz,303
ABC001,ABC001-304-02,Sint distinctio.,Disorientation,Behavioural disorders,Severe,N,2014-05-10,34,133,2014-05-19,43,21,M,GBR,Treatment 50mg,TRTB,TRTB,Dr. Jake Lueilwitz,304
ABC001,ABC001-304-02,Consequatur alias et vitae dolorem pariatur maiores.,Recumbency,Systemic disorders,Severe,N,2014-06-06,61,134,2014-06-14,69,21,M,GBR,Treatment 50mg,TRTB,TRTB,Dr. Jake Lueilwitz,304
ABC001,ABC001-304-04,Omnis officia veniam consectetur.,Migraine,Neurological disorders,Mild,N,2014-03-04,,135,,,50,F,GBR,Treatment 50mg,TRTB,SCRNFAIL,Dr. Jake Lueilwitz,304
ABC001,ABC001-304-04,Velit est.,Increased intracranial pressure,Neurological disorders,Severe,N,2014-03-04,,136,,,50,F,GBR,Treatment 50mg,TRTB,SCRNFAIL,Dr. Jake Lueilwitz,304
ABC001,ABC001-304-05,Sed culpa ex laudantium debitis voluptatem fuga.,Lethargy,Systemic disorders,Mild,Y,2014-04-17,44,137,,,18,M,GBR,Treatment 100mg,TRTC,TRTC,Dr. Jake Lueilwitz,304
ABC001,ABC001-304-05,Consequatur exercitationem non delectus accusamus quam rerum.,Apnoea,Respiratory tract disorders,Mild,N,2014-04-28,55,138,,,18,M,GBR,Treatment 100mg,TRTC,TRTC,Dr. Jake Lueilwitz,304
ABC001,ABC001-304-05,Est exercitationem soluta beatae dolor totam doloribus.,Headache,Neurological disorders,Severe,N,2014-04-25,52,139,,,18,M,GBR,Treatment 100mg,TRTC,TRTC,Dr. Jake Lueilwitz,304
ABC001,ABC001-304-05,Et sit ad neque et ipsam.,Malaise,Systemic disorders,Mild,N,2014-03-13,9,140,,,18,M,GBR,Treatment 100mg,TRTC,TRTC,Dr. Jake Lueilwitz,304
ABC001,ABC001-304-05,Accusamus est sequi quia esse dolores.,Headache,Neurological disorders,Mild,N,2014-05-11,68,141,,,18,M,GBR,Treatment 100mg,TRTC,TRTC,Dr. Jake Lueilwitz,304
ABC001,ABC001-401-01,Animi sed.,Disorientation,Behavioural disorders,Severe,N,2014-07-30,38,142,,,21,M,ESP,Treatment 100mg,TRTC,TRTC,Dr. Giuseppe Kulas,401
ABC001,ABC001-401-01,Distinctio ea aut voluptatum ut eos eaque.,Dyspnoea,Respiratory tract disorders,Mild,N,2014-07-14,22,143,2014-07-27,35,21,M,ESP,Treatment 100mg,TRTC,TRTC,Dr. Giuseppe Kulas,401
ABC001,ABC001-401-01,Eaque ratione atque iusto sequi.,Headache,Neurological disorders,Mild,N,2014-08-09,48,144,2014-08-11,50,21,M,ESP,Treatment 100mg,TRTC,TRTC,Dr. Giuseppe Kulas,401
ABC001,ABC001-401-01,Dolorem molestias praesentium molestiae et explicabo possimus.,Sedation,Neurological disorders,Mild,N,2014-06-11,-11,145,,,21,M,ESP,Treatment 100mg,TRTC,TRTC,Dr. Giuseppe Kulas,401
ABC001,ABC001-401-01,Deserunt ipsam ratione ut.,Increased intracranial pressure,Neurological disorders,Mild,N,2014-07-05,13,146,2014-08-01,40,21,M,ESP,Treatment 100mg,TRTC,TRTC,Dr. Giuseppe Kulas,401
ABC001,ABC001-401-01,Optio vel nulla assumenda animi velit ipsa.,Lethargy,Systemic disorders,Mild,N,2014-07-09,17,147,2014-08-13,52,21,M,ESP,Treatment 100mg,TRTC,TRTC,Dr. Giuseppe Kulas,401
ABC001,ABC001-402-01,Quisquam id iure nam possimus.,Headache,Neurological disorders,Mild,N,2014-05-08,63,148,2014-05-11,66,47,F,ESP,Treatment 10mg,TRTA,TRTA,Dr. Destiney Schultz,402
ABC001,ABC001-402-01,Nemo est.,Headache,Neurological disorders,Mild,N,2014-03-20,14,149,,,47,F,ESP,Treatment 10mg,TRTA,TRTA,Dr. Destiney Schultz,402
ABC001,ABC001-402-01,Distinctio error consequatur explicabo qui.,Pruritus,Skin and appendages disorders,Mild,N,2014-04-08,33,150,,,47,F,ESP,Treatment 10mg,TRTA,TRTA,Dr. Destiney Schultz,402
ABC001,ABC001-402-01,Modi repellat.,Apnoea,Respiratory tract disorders,Mild,N,2014-03-02,-4,151,,,47,F,ESP,Treatment 10mg,TRTA,TRTA,Dr. Destiney Schultz,402
ABC001,ABC001-402-02,Exercitationem incidunt dolor in hic necessitatibus quam.,Apnoea,Respiratory tract disorders,Mild,N,2014-03-16,-1,152,2014-04-19,33,55,F,ESP,Placebo,PBO,PBO,Dr. Destiney Schultz,402
ABC001,ABC001-402-02,Tempore ab dolorem ut impedit.,Lethargy,Systemic disorders,Mild,N,2014-04-06,20,153,,,55,F,ESP,Placebo,PBO,PBO,Dr. Destiney Schultz,402
ABC001,ABC001-402-02,Debitis ratione repellat occaecati voluptas quae.,Migraine,Neurological disorders,Severe,Y,2014-04-16,30,154,2014-05-07,51,55,F,ESP,Placebo,PBO,PBO,Dr. Destiney Schultz,402
ABC001,ABC001-403-01,Illo aut quo voluptatem nobis est.,Headache,Neurological disorders,Mild,N,2014-05-07,-7,155,,,38,M,ESP,Treatment 10mg,TRTA,TRTA,Dr. Mr. Dana Johnson,403
ABC001,ABC001-403-02,Iste minima rerum.,Lethargy,Systemic disorders,Mild,N,2014-07-24,1,156,,,56,M,ESP,Treatment 100mg,TRTC,TRTC,Dr. Mr. Dana Johnson,403
ABC001,ABC001-403-02,Perspiciatis voluptatem facere fuga.,Pruritus,Skin and appendages disorders,Mild,N,2014-09-23,62,157,,,56,M,ESP,Treatment 100mg,TRTC,TRTC,Dr. Mr. Dana Johnson,403
ABC001,ABC001-403-02,Et beatae vel modi est ea dolor.,Lethargy,Systemic disorders,Mild,N,2014-07-10,-13,158,,,56,M,ESP,Treatment 100mg,TRTC,TRTC,Dr. Mr. Dana Johnson,403
ABC001,ABC001-403-02,Nihil dolorem.,Migraine,Neurological disorders,Mild,Y,2014-07-31,8,159,2014-09-24,63,56,M,ESP,Treatment 100mg,TRTC,TRTC,Dr. Mr. Dana Johnson,403
ABC001,ABC001-404-01,Facilis autem in deleniti reiciendis ut.,Headache,Neurological disorders,Mild,N,2014-07-08,34,160,2014-08-04,61,46,M,ESP,Treatment 10mg,TRTA,TRTA,Dr. August Hermann,404
ABC001,ABC001-404-01,Error at qui omnis quos.,Apnoea,Respiratory tract disorders,Mild,N,2014-08-09,66,161,2014-08-12,69,46,M,ESP,Treatment 10mg,TRTA,TRTA,Dr. August Hermann,404
ABC001,ABC001-404-01,Amet deleniti totam culpa consequuntur ipsa placeat.,Dizziness,Neurological disorders,Mild,Y,2014-06-01,-3,162,,,46,M,ESP,Treatment 10mg,TRTA,TRTA,Dr. August Hermann,404
ABC001,ABC001-404-01,Delectus magni sint excepturi.,Teeth grinding,Behavioural disorders,Mild,N,2014-08-11,68,163,,,46,M,ESP,Treatment 10mg,TRTA,TRTA,Dr. August Hermann,404
ABC001,ABC001-404-01,Cum ad.,Malaise,Systemic disorders,Mild,N,2014-06-01,-3,164,,,46,M,ESP,Treatment 10mg,TRTA,TRTA,Dr. August Hermann,404
ABC001,ABC001-404-02,Ratione quasi voluptate quis nihil.,Lethargy,Systemic disorders,Mild,N,2014-06-24,42,165,2014-06-29,47,44,F,ESP,Placebo,PBO,PBO,Dr. August Hermann,404
ABC001,ABC001-404-02,Sed corporis similique.,Lethargy,Systemic disorders,Mild,N,2014-05-16,3,166,2014-05-26,13,44,F,ESP,Placebo,PBO,PBO,Dr. August Hermann,404
ABC001,ABC001-404-02,Rem nihil quae blanditiis distinctio voluptatum dignissimos.,Recumbency,Systemic disorders,Severe,N,2014-05-23,10,167,2014-06-10,28,44,F,ESP,Placebo,PBO,PBO,Dr. August Hermann,404
ABC001,ABC001-404-02,Aut voluptas assumenda ipsa.,Recumbency,Systemic disorders,Severe,N,2014-05-20,7,168,2014-07-21,69,44,F,ESP,Placebo,PBO,PBO,Dr. August Hermann,404
ABC001,ABC001-404-02,Est in nulla incidunt commodi consequatur.,Headache,Neurological disorders,Severe,Y,2014-05-10,-3,169,2014-06-01,19,44,F,ESP,Placebo,PBO,PBO,Dr. August Hermann,404
ABC001,ABC001-404-02,Aliquid architecto facere reprehenderit illum.,Recumbency,Systemic disorders,Mild,N,2014-06-07,25,170,,,44,F,ESP,Placebo,PBO,PBO,Dr. August Hermann,404
ABC001,ABC001-404-02,Qui officiis et provident nihil.,Recumbency,Systemic disorders,Mild,N,2014-05-03,-10,171,2014-07-15,63,44,F,ESP,Placebo,PBO,PBO,Dr. August Hermann,404
ABC001,ABC001-404-02,Velit praesentium ut laboriosam ut.,Migraine,Neurological disorders,Mild,N,2014-05-15,2,172,2014-06-23,41,44,F,ESP,Placebo,PBO,PBO,Dr. August Hermann,404
ABC001,ABC001-404-03,Earum est quidem dolorum aut ut adipisci.,Headache,Neurological disorders,Mild,N,2014-03-22,18,173,2014-03-30,26,34,F,ESP,Treatment 10mg,TRTA,TRTA,Dr. August Hermann,404
ABC001,ABC001-404-03,Eos omnis et ipsum expedita officia iste.,Apnoea,Respiratory tract disorders,Mild,N,2014-03-13,9,174,2014-04-05,32,34,F,ESP,Treatment 10mg,TRTA,TRTA,Dr. August Hermann,404
ABC001,ABC001-404-03,Voluptas laboriosam dolorem enim alias veritatis.,Recumbency,Systemic disorders,Mild,N,2014-03-03,-1,175,,,34,F,ESP,Treatment 10mg,TRTA,TRTA,Dr. August Hermann,404
ABC001,ABC001-404-04,Recusandae veritatis beatae eius voluptas illo ut.,Disorientation,Behavioural disorders,Mild,N,2014-10-22,57,176,2014-10-29,64,20,M,ESP,Treatment 50mg,TRTB,TRTB,Dr. August Hermann,404
ABC001,ABC001-404-04,Voluptas vitae non modi repudiandae dolores ipsa.,Teeth grinding,Behavioural disorders,Severe,Y,2014-10-02,37,177,,,20,M,ESP,Treatment 50mg,TRTB,TRTB,Dr. August Hermann,404
ABC001,ABC001-404-04,Cumque possimus.,Malaise,Systemic disorders,Mild,N,2014-08-17,-9,178,2014-09-22,27,20,M,ESP,Treatment 50mg,TRTB,TRTB,Dr. August Hermann,404
ABC001,ABC001-404-04,Et repellendus ut sed.,Lethargy,Systemic disorders,Mild,N,2014-09-12,17,179,,,20,M,ESP,Treatment 50mg,TRTB,TRTB,Dr. August Hermann,404
ABC001,ABC001-404-04,Enim unde ut consequuntur.,Malaise,Systemic disorders,Mild,N,2014-09-03,8,180,2014-10-31,66,20,M,ESP,Treatment 50mg,TRTB,TRTB,Dr. August Hermann,404
ABC001,ABC001-404-04,Repellat ad tempore.,Recumbency,Systemic disorders,Severe,N,2014-11-04,70,181,,,20,M,ESP,Treatment 50mg,TRTB,TRTB,Dr. August Hermann,404
ABC001,ABC001-404-04,Deserunt tenetur.,Headache,Neurological disorders,Mild,Y,2014-08-22,-4,182,2014-09-19,24,20,M,ESP,Treatment 50mg,TRTB,TRTB,Dr. August Hermann,404
ABC001,ABC001-502-01,Error similique.,Lethargy,Systemic disorders,Mild,N,2014-03-15,-9,183,2014-04-16,23,29,F,IRL,Placebo,PBO,PBO,Dr. Deshaun Kohler,502
ABC001,ABC001-502-01,Qui voluptatum rerum consequatur maxime accusamus voluptas.,Increased intracranial pressure,Neurological disorders,Mild,N,2014-04-15,22,184,,,29,F,IRL,Placebo,PBO,PBO,Dr. Deshaun Kohler,502
ABC001,ABC001-503-01,Totam labore et necessitatibus hic.,Sedation,Neurological disorders,Mild,N,2014-04-26,12,185,2014-05-30,46,41,M,IRL,Treatment 10mg,TRTA,TRTA,Dr. Ms. Blair Wolff,503
ABC001,ABC001-503-02,Accusamus soluta cumque tempore.,Headache,Neurological disorders,Mild,N,2014-05-07,-14,186,,,46,M,IRL,Treatment 10mg,TRTA,TRTA,Dr. Ms. Blair Wolff,503
ABC001,ABC001-503-03,Molestiae fugiat.,Malaise,Systemic disorders,Severe,Y,2014-06-22,27,187,,,65,M,IRL,Treatment 100mg,TRTC,TRTC,Dr. Ms. Blair Wolff,503
ABC001,ABC001-503-03,Pariatur modi.,Malaise,Systemic disorders,Mild,N,2014-05-23,-3,188,,,65,M,IRL,Treatment 100mg,TRTC,TRTC,Dr. Ms. Blair Wolff,503
ABC001,ABC001-503-03,Dicta dolore iusto.,Migraine,Neurological disorders,Mild,N,2014-05-13,-13,189,,,65,M,IRL,Treatment 100mg,TRTC,TRTC,Dr. Ms. Blair Wolff,503
ABC001,ABC001-503-03,Minus consequuntur.,Lethargy,Systemic disorders,Severe,Y,2014-06-25,30,190,,,65,M,IRL,Treatment 100mg,TRTC,TRTC,Dr. Ms. Blair Wolff,503
ABC001,ABC001-503-03,Quod esse non voluptatem officiis quia.,Lethargy,Systemic disorders,Severe,N,2014-05-29,3,191,,,65,M,IRL,Treatment 100mg,TRTC,TRTC,Dr. Ms. Blair Wolff,503
ABC001,ABC001-503-03,Enim repellendus.,Dizziness,Neurological disorders,Mild,Y,2014-06-04,9,192,,,65,M,IRL,Treatment 100mg,TRTC,TRTC,Dr. Ms. Blair Wolff,503
ABC001,ABC001-504-01,Rerum nam minima vero.,Impaired consciousness,Neurological disorders,Mild,Y,2014-05-11,-1,193,,,35,F,IRL,Treatment 100mg,TRTC,TRTC,Dr. Kian Price,504
ABC001,ABC001-504-01,Maxime dolorum quae quam odio.,Dermatitis and eczema,Skin and appendages disorders,Mild,N,2014-05-01,-11,194,,,35,F,IRL,Treatment 100mg,TRTC,TRTC,Dr. Kian Price,504
ABC001,ABC001-601-02,Sequi in quia.,Lethargy,Systemic disorders,Mild,N,2014-03-06,4,195,2014-03-10,8,25,F,AUT,Treatment 50mg,TRTB,TRTB,Dr. Mrs. Garth Mayert,601
ABC001,ABC001-601-02,Dolores est id qui aliquam pariatur.,Malaise,Systemic disorders,Severe,N,2014-02-27,-3,196,,,25,F,AUT,Treatment 50mg,TRTB,TRTB,Dr. Mrs. Garth Mayert,601
ABC001,ABC001-601-03,Laborum ab eveniet.,Headache,Neurological disorders,Mild,N,2014-07-04,-13,197,2014-08-05,19,32,M,AUT,Treatment 100mg,TRTC,TRTC,Dr. Mrs. Garth Mayert,601
ABC001,ABC001-601-04,Dolor error beatae qui blanditiis non.,Lethargy,Systemic disorders,Mild,N,2014-05-14,41,198,2014-05-14,41,56,M,AUT,Treatment 50mg,TRTB,TRTB,Dr. Mrs. Garth Mayert,601
ABC001,ABC001-601-04,Beatae nemo.,Lethargy,Systemic disorders,Mild,N,2014-04-01,-2,199,,,56,M,AUT,Treatment 50mg,TRTB,TRTB,Dr. Mrs. Garth Mayert,601
ABC001,ABC001-601-05,Ratione et libero non beatae voluptates consequatur.,Lethargy,Systemic disorders,Severe,N,2014-03-21,,200,2014-03-21,,57,M,AUT,Placebo,PBO,SCRNFAIL,Dr. Mrs. Garth Mayert,601
ABC001,ABC001-601-06,Autem quis id aut.,Disorientation,Behavioural disorders,Mild,N,2014-04-01,0,201,,,38,F,AUT,Treatment 100mg,TRTC,TRTC,Dr. Mrs. Garth Mayert,601
ABC001,ABC001-601-07,Nisi dolores est eos.,Apnoea,Respiratory tract disorders,Mild,N,2014-03-08,6,202,,,20,M,AUT,Treatment 10mg,TRTA,TRTA,Dr. Mrs. Garth Mayert,601
ABC001,ABC001-601-07,Corrupti illo quo optio.,Apnoea,Respiratory tract disorders,Severe,N,2014-05-02,61,203,2014-05-10,69,20,M,AUT,Treatment 10mg,TRTA,TRTA,Dr. Mrs. Garth Mayert,601
ABC001,ABC001-602-02,Nobis numquam in.,Lethargy,Systemic disorders,Severe,N,2014-07-10,33,204,,,26,F,AUT,Placebo,PBO,PBO,Dr. Johathan Wolf,602
ABC001,ABC001-602-02,Quis sint at illum perspiciatis expedita.,Headache,Neurological disorders,Mild,N,2014-07-27,50,205,,,26,F,AUT,Placebo,PBO,PBO,Dr. Johathan Wolf,602
ABC001,ABC001-602-02,Nostrum at.,Migraine,Neurological disorders,Severe,N,2014-06-15,8,206,2014-07-22,45,26,F,AUT,Placebo,PBO,PBO,Dr. Johathan Wolf,602
ABC001,ABC001-602-03,Fugit repellendus ipsa sapiente.,Migraine,Neurological disorders,Mild,N,2014-03-24,13,207,,,23,M,AUT,Placebo,PBO,PBO,Dr. Johathan Wolf,602
ABC001,ABC001-602-04,Aspernatur reiciendis est omnis.,Disorientation,Behavioural disorders,Mild,N,2014-09-14,50,208,2014-09-20,56,33,M,AUT,Treatment 10mg,TRTA,TRTA,Dr. Johathan Wolf,602
ABC001,ABC001-602-04,Pariatur nam ab ullam velit.,Migraine,Neurological disorders,Mild,N,2014-09-05,41,209,2014-09-06,42,33,M,AUT,Treatment 10mg,TRTA,TRTA,Dr. Johathan Wolf,602
ABC001,ABC001-602-04,Adipisci voluptate culpa veritatis.,Dermatitis and eczema,Skin and appendages disorders,Mild,N,2014-09-01,37,210,,,33,M,AUT,Treatment 10mg,TRTA,TRTA,Dr. Johathan Wolf,602
ABC001,ABC001-602-04,Non in delectus deleniti eaque corrupti.,Malaise,Systemic disorders,Mild,N,2014-08-28,33,211,2014-10-04,70,33,M,AUT,Treatment 10mg,TRTA,TRTA,Dr. Johathan Wolf,602
ABC001,ABC001-602-04,Voluptas et vel voluptas voluptatem.,Headache,Neurological disorders,Mild,N,2014-09-19,55,212,2014-09-23,59,33,M,AUT,Treatment 10mg,TRTA,TRTA,Dr. Johathan Wolf,602
ABC001,ABC001-602-05,Expedita omnis consequuntur.,Vocalisation,Behavioural disorders,Mild,N,2014-08-20,57,213,2014-08-24,61,53,M,AUT,Treatment 50mg,TRTB,TRTB,Dr. Johathan Wolf,602
ABC001,ABC001-602-05,Est minima quibusdam ratione similique minus.,Headache,Neurological disorders,Mild,N,2014-08-16,53,214,2014-08-26,63,53,M,AUT,Treatment 50mg,TRTB,TRTB,Dr. Johathan Wolf,602
ABC001,ABC001-602-05,Et dicta laborum.,Migraine,Neurological disorders,Mild,N,2014-07-10,16,215,,,53,M,AUT,Treatment 50mg,TRTB,TRTB,Dr. Johathan Wolf,602
ABC001,ABC001-602-05,Natus quam dolores placeat modi asperiores distinctio.,Headache,Neurological disorders,Mild,N,2014-06-16,-8,216,2014-07-09,15,53,M,AUT,Treatment 50mg,TRTB,TRTB,Dr. Johathan Wolf,602
ABC001,ABC001-602-05,Eligendi quia iste.,Disorientation,Behavioural disorders,Mild,N,2014-07-19,25,217,2014-07-26,32,53,M,AUT,Treatment 50mg,TRTB,TRTB,Dr. Johathan Wolf,602
ABC001,ABC001-602-08,Dicta magni aperiam ut.,Sedation,Neurological disorders,Mild,N,2014-08-28,31,218,,,55,F,AUT,Treatment 100mg,TRTC,TRTC,Dr. Johathan Wolf,602
ABC001,ABC001-602-08,Hic quasi rem harum saepe et.,Dyspnoea,Respiratory tract disorders,Mild,N,2014-07-28,0,219,2014-08-22,25,55,F,AUT,Treatment 100mg,TRTC,TRTC,Dr. Johathan Wolf,602
ABC001,ABC001-602-08,Aliquam eos maiores quo neque totam tempora.,Lethargy,Systemic disorders,Mild,N,2014-08-05,8,220,,,55,F,AUT,Treatment 100mg,TRTC,TRTC,Dr. Johathan Wolf,602
ABC001,ABC001-602-08,Nesciunt autem quae aliquam commodi ut.,Malaise,Systemic disorders,Mild,N,2014-09-04,38,221,,,55,F,AUT,Treatment 100mg,TRTC,TRTC,Dr. Johathan Wolf,602
ABC001,ABC001-602-08,Illo quod ea libero ratione assumenda.,Disorientation,Behavioural disorders,Severe,N,2014-08-07,10,222,2014-08-19,22,55,F,AUT,Treatment 100mg,TRTC,TRTC,Dr. Johathan Wolf,602
ABC001,ABC001-602-08,Ea laboriosam.,Lethargy,Systemic disorders,Mild,N,2014-09-11,45,223,2014-09-22,56,55,F,AUT,Treatment 100mg,TRTC,TRTC,Dr. Johathan Wolf,602
ABC001,ABC001-602-08,Earum quo mollitia perspiciatis.,Migraine,Neurological disorders,Mild,N,2014-08-31,34,224,2014-09-22,56,55,F,AUT,Treatment 100mg,TRTC,TRTC,Dr. Johathan Wolf,602
ABC001,ABC001-602-08,Provident odio saepe et repellendus ut.,Disorientation,Behavioural disorders,Mild,N,2014-08-09,12,225,,,55,F,AUT,Treatment 100mg,TRTC,TRTC,Dr. Johathan Wolf,602
ABC001,ABC001-701-01,Est omnis corporis veritatis quia sint temporibus.,Lethargy,Systemic disorders,Severe,N,2014-08-26,15,226,2014-10-02,52,38,F,ITA,Treatment 10mg,TRTA,TRTA,Dr. Lyda Kerluke,701
ABC001,ABC001-701-01,Perspiciatis quaerat fugit quia maiores.,Disorientation,Behavioural disorders,Mild,N,2014-09-23,43,227,,,38,F,ITA,Treatment 10mg,TRTA,TRTA,Dr. Lyda Kerluke,701
ABC001,ABC001-701-01,Culpa ex eveniet et eos amet.,Apnoea,Respiratory tract disorders,Mild,N,2014-09-26,46,228,2014-10-02,52,38,F,ITA,Treatment 10mg,TRTA,TRTA,Dr. Lyda Kerluke,701
ABC001,ABC001-701-02,Consequatur quo iusto voluptatem.,Disorientation,Behavioural disorders,Mild,N,2014-08-12,32,229,,,20,M,ITA,Treatment 10mg,TRTA,TRTA,Dr. Lyda Kerluke,701
ABC001,ABC001-701-02,Harum iure.,Pruritus,Skin and appendages disorders,Mild,N,2014-09-03,54,230,,,20,M,ITA,Treatment 10mg,TRTA,TRTA,Dr. Lyda Kerluke,701
ABC001,ABC001-701-03,Ea iusto ipsa in nulla.,Recumbency,Systemic disorders,Mild,N,2014-08-09,54,231,,,26,F,ITA,Treatment 50mg,TRTB,TRTB,Dr. Lyda Kerluke,701
ABC001,ABC001-701-03,Et voluptate et.,Headache,Neurological disorders,Severe,N,2014-08-07,52,232,2014-08-20,65,26,F,ITA,Treatment 50mg,TRTB,TRTB,Dr. Lyda Kerluke,701
ABC001,ABC001-701-03,Magnam aperiam qui nisi.,Disorientation,Behavioural disorders,Severe,N,2014-08-19,64,233,,,26,F,ITA,Treatment 50mg,TRTB,TRTB,Dr. Lyda Kerluke,701
ABC001,ABC001-702-02,Voluptatem expedita veritatis.,Lethargy,Systemic disorders,Mild,N,2015-01-28,54,234,,,63,F,ITA,Treatment 100mg,TRTC,TRTC,Dr. Mrs. Amelie Carter,702
ABC001,ABC001-702-02,Consectetur id tempora molestiae ut qui.,Headache,Neurological disorders,Mild,N,2015-01-11,37,235,2015-02-05,62,63,F,ITA,Treatment 100mg,TRTC,TRTC,Dr. Mrs. Amelie Carter,702
ABC001,ABC001-702-03,Eius quidem eligendi eum quasi.,Sedation,Neurological disorders,Mild,N,2014-04-09,3,236,2014-05-01,25,30,F,ITA,Treatment 100mg,TRTC,TRTC,Dr. Mrs. Amelie Carter,702
ABC001,ABC001-702-03,Nemo repudiandae omnis sunt id quidem.,Apnoea,Respiratory tract disorders,Mild,N,2014-04-02,-4,237,,,30,F,ITA,Treatment 100mg,TRTC,TRTC,Dr. Mrs. Amelie Carter,702
ABC001,ABC001-702-03,Ad velit ipsam minima ut debitis illo.,Lethargy,Systemic disorders,Mild,N,2014-05-14,38,238,,,30,F,ITA,Treatment 100mg,TRTC,TRTC,Dr. Mrs. Amelie Carter,702
ABC001,ABC001-702-03,Dolorem fuga accusamus.,Headache,Neurological disorders,Mild,N,2014-04-07,1,239,,,30,F,ITA,Treatment 100mg,TRTC,TRTC,Dr. Mrs. Amelie Carter,702
ABC001,ABC001-702-03,Magni sint necessitatibus vitae in ea.,Apnoea,Respiratory tract disorders,Severe,Y,2014-03-27,-10,240,,,30,F,ITA,Treatment 100mg,TRTC,TRTC,Dr. Mrs. Amelie Carter,702
ABC001,ABC001-702-03,Et aspernatur aut.,Recumbency,Systemic disorders,Severe,N,2014-04-03,-3,241,,,30,F,ITA,Treatment 100mg,TRTC,TRTC,Dr. Mrs. Amelie Carter,702
ABC001,ABC001-702-03,Placeat est est laudantium.,Apnoea,Respiratory tract disorders,Mild,N,2014-03-28,-9,242,2014-04-04,-2,30,F,ITA,Treatment 100mg,TRTC,TRTC,Dr. Mrs. Amelie Carter,702
ABC001,ABC001-702-03,Pariatur ullam.,Lethargy,Systemic disorders,Severe,N,2014-05-15,39,243,2014-05-17,41,30,F,ITA,Treatment 100mg,TRTC,TRTC,Dr. Mrs. Amelie Carter,702
ABC001,ABC001-702-03,Omnis delectus eum non exercitationem eos.,Malaise,Systemic disorders,Mild,Y,2014-04-08,2,244,2014-04-27,21,30,F,ITA,Treatment 100mg,TRTC,TRTC,Dr. Mrs. Amelie Carter,702
ABC001,ABC001-702-03,Et laboriosam libero quo consectetur.,Impaired consciousness,Neurological disorders,Mild,Y,2014-05-12,36,245,,,30,F,ITA,Treatment 100mg,TRTC,TRTC,Dr. Mrs. Amelie Carter,702
ABC001,ABC001-703-01,Velit at architecto doloremque temporibus illo labore.,Migraine,Neurological disorders,Mild,N,2014-05-08,68,246,,,51,M,ITA,Treatment 10mg,TRTA,TRTA,Dr. Lenna Roberts,703
ABC001,ABC001-703-01,Quibusdam earum.,Dizziness,Neurological disorders,Mild,N,2014-04-15,45,247,,,51,M,ITA,Treatment 10mg,TRTA,TRTA,Dr. Lenna Roberts,703
ABC001,ABC001-703-04,Sapiente saepe ut nulla nostrum.,Disorientation,Behavioural disorders,Mild,N,2014-05-10,0,248,,,38,F,ITA,Treatment 100mg,TRTC,TRTC,Dr. Lenna Roberts,703
ABC001,ABC001-703-04,Dolorum quod necessitatibus.,Lethargy,Systemic disorders,Mild,N,2014-06-03,24,249,2014-06-11,32,38,F,ITA,Treatment 100mg,TRTC,TRTC,Dr. Lenna Roberts,703
ABC001,ABC001-703-04,Aut ab doloribus voluptatem facilis aspernatur excepturi.,Lethargy,Systemic disorders,Mild,N,2014-05-19,9,250,,,38,F,ITA,Treatment 100mg,TRTC,TRTC,Dr. Lenna Roberts,703
ABC001,ABC001-703-04,Eaque debitis eius aut placeat.,Increased intracranial pressure,Neurological disorders,Mild,N,2014-05-09,-1,251,2014-06-01,22,38,F,ITA,Treatment 100mg,TRTC,TRTC,Dr. Lenna Roberts,703
ABC001,ABC001-703-04,Et tempora dolor id.,Headache,Neurological disorders,Mild,Y,2014-05-08,-2,252,2014-06-11,32,38,F,ITA,Treatment 100mg,TRTC,TRTC,Dr. Lenna Roberts,703
ABC001,ABC001-703-04,Dolorem voluptas doloribus perspiciatis eos.,Migraine,Neurological disorders,Mild,N,2014-06-04,25,253,2014-07-02,53,38,F,ITA,Treatment 100mg,TRTC,TRTC,Dr. Lenna Roberts,703
ABC001,ABC001-703-05,Dolores beatae doloribus aut excepturi omnis.,Vocalisation,Behavioural disorders,Mild,N,2014-04-20,47,254,2014-04-30,57,33,M,ITA,Treatment 50mg,TRTB,TRTB,Dr. Lenna Roberts,703
ABC001,ABC001-703-05,Dolorum vel in voluptas.,Increased intracranial pressure,Neurological disorders,Severe,Y,2014-04-30,57,255,,,33,M,ITA,Treatment 50mg,TRTB,TRTB,Dr. Lenna Roberts,703
ABC001,ABC001-703-05,Quia magni in sunt repellat.,Lethargy,Systemic disorders,Mild,Y,2014-04-08,35,256,,,33,M,ITA,Treatment 50mg,TRTB,TRTB,Dr. Lenna Roberts,703
ABC001,ABC001-703-05,Suscipit aperiam consequuntur sed veniam consequatur.,Malaise,Systemic disorders,Severe,N,2014-05-10,67,257,2014-05-10,67,33,M,ITA,Treatment 50mg,TRTB,TRTB,Dr. Lenna Roberts,703
ABC001,ABC001-703-06,Nobis eum dicta.,Apnoea,Respiratory tract disorders,Severe,N,2014-04-04,27,258,,,34,M,ITA,Placebo,PBO,PBO,Dr. Lenna Roberts,703
ABC001,ABC001-703-06,Sed veritatis eius ut saepe temporibus.,Dermatitis and eczema,Skin and appendages disorders,Mild,N,2014-04-02,25,259,2014-04-02,25,34,M,ITA,Placebo,PBO,PBO,Dr. Lenna Roberts,703
ABC001,ABC001-703-06,Magni est voluptatem similique.,Increased intracranial pressure,Neurological disorders,Mild,N,2014-03-18,10,260,,,34,M,ITA,Placebo,PBO,PBO,Dr. Lenna Roberts,703
ABC001,ABC001-703-06,Explicabo eveniet.,Apnoea,Respiratory tract disorders,Mild,N,2014-03-09,1,261,,,34,M,ITA,Placebo,PBO,PBO,Dr. Lenna Roberts,703
ABC001,ABC001-801-02,Id quas alias asperiores sunt eaque minima.,Lethargy,Systemic disorders,Severe,Y,2014-03-22,5,262,2014-04-04,18,63,M,BEL,Treatment 100mg,TRTC,TRTC,Dr. Chelsey Weimann,801
ABC001,ABC001-801-02,Sint sunt dolorem fuga sed et.,Recumbency,Systemic disorders,Mild,N,2014-04-08,22,263,2014-04-14,28,63,M,BEL,Treatment 100mg,TRTC,TRTC,Dr. Chelsey Weimann,801
ABC001,ABC001-801-02,Ad ullam.,Teeth grinding,Behavioural disorders,Mild,N,2014-03-15,-2,264,2014-05-06,50,63,M,BEL,Treatment 100mg,TRTC,TRTC,Dr. Chelsey Weimann,801
ABC001,ABC001-801-02,Occaecati sint cupiditate corporis.,Migraine,Neurological disorders,Mild,N,2014-05-06,50,265,,,63,M,BEL,Treatment 100mg,TRTC,TRTC,Dr. Chelsey Weimann,801
ABC001,ABC001-801-02,Dignissimos quis vel et.,Headache,Neurological disorders,Severe,N,2014-05-12,56,266,,,63,M,BEL,Treatment 100mg,TRTC,TRTC,Dr. Chelsey Weimann,801
ABC001,ABC001-801-02,Eos modi architecto laboriosam vero ut minima.,Migraine,Neurological disorders,Severe,N,2014-03-30,13,267,,,63,M,BEL,Treatment 100mg,TRTC,TRTC,Dr. Chelsey Weimann,801
ABC001,ABC001-801-03,Minus rerum.,Dermatitis and eczema,Skin and appendages disorders,Mild,N,2014-06-18,16,268,,,19,M,BEL,Treatment 10mg,TRTA,TRTA,Dr. Chelsey Weimann,801
ABC001,ABC001-801-03,Qui deleniti dolor.,Apnoea,Respiratory tract disorders,Mild,N,2014-08-01,60,269,2014-08-02,61,19,M,BEL,Treatment 10mg,TRTA,TRTA,Dr. Chelsey Weimann,801
ABC001,ABC001-801-03,Id incidunt porro labore autem.,Malaise,Systemic disorders,Mild,N,2014-07-11,39,270,2014-07-14,42,19,M,BEL,Treatment 10mg,TRTA,TRTA,Dr. Chelsey Weimann,801
ABC001,ABC001-801-03,Quia est beatae ut qui quisquam provident.,Headache,Neurological disorders,Mild,N,2014-07-28,56,271,2014-08-03,62,19,M,BEL,Treatment 10mg,TRTA,TRTA,Dr. Chelsey Weimann,801
ABC001,ABC001-801-03,Nesciunt qui.,Vocalisation,Behavioural disorders,Mild,N,2014-08-09,68,272,,,19,M,BEL,Treatment 10mg,TRTA,TRTA,Dr. Chelsey Weimann,801
ABC001,ABC001-801-04,Officiis qui voluptas molestiae.,Lethargy,Systemic disorders,Mild,N,2014-04-08,6,273,,,53,M,BEL,Treatment 100mg,TRTC,TRTC,Dr. Chelsey Weimann,801
ABC001,ABC001-801-04,Iure qui fugit aut error.,Malaise,Systemic disorders,Severe,N,2014-05-11,39,274,2014-06-01,60,53,M,BEL,Treatment 100mg,TRTC,TRTC,Dr. Chelsey Weimann,801
ABC001,ABC001-801-04,Velit vitae eveniet nemo rerum ratione.,Malaise,Systemic disorders,Mild,N,2014-03-26,-7,275,,,53,M,BEL,Treatment 100mg,TRTC,TRTC,Dr. Chelsey Weimann,801
ABC001,ABC001-801-05,Voluptatem quis est id.,Malaise,Systemic disorders,Mild,N,2014-12-01,2,276,2014-12-27,28,59,F,BEL,Treatment 50mg,TRTB,TRTB,Dr. Chelsey Weimann,801
ABC001,ABC001-801-05,Repellat eligendi saepe consequatur.,Migraine,Neurological disorders,Mild,N,2015-01-01,33,277,,,59,F,BEL,Treatment 50mg,TRTB,TRTB,Dr. Chelsey Weimann,801
ABC001,ABC001-801-05,Culpa dolores dolores a accusantium ut.,Malaise,Systemic disorders,Mild,Y,2014-11-16,-13,278,2014-11-27,-2,59,F,BEL,Treatment 50mg,TRTB,TRTB,Dr. Chelsey Weimann,801
ABC001,ABC001-801-05,Quod pariatur laborum ea.,Migraine,Neurological disorders,Severe,N,2015-01-04,36,279,,,59,F,BEL,Treatment 50mg,TRTB,TRTB,Dr. Chelsey Weimann,801
ABC001,ABC001-801-05,Quos et voluptas delectus est.,Malaise,Systemic disorders,Mild,N,2015-01-20,52,280,,,59,F,BEL,Treatment 50mg,TRTB,TRTB,Dr. Chelsey Weimann,801
ABC001,ABC001-801-05,Cum nulla.,Malaise,Systemic disorders,Mild,N,2015-01-14,46,281,2015-02-02,65,59,F,BEL,Treatment 50mg,TRTB,TRTB,Dr. Chelsey Weimann,801
ABC001,ABC001-801-06,Ex perferendis ut sit natus enim eligendi.,Dermatitis and eczema,Skin and appendages disorders,Severe,N,2014-02-28,-7,282,2014-03-04,-3,31,F,BEL,Treatment 100mg,TRTC,TRTC,Dr. Chelsey Weimann,801
ABC001,ABC001-801-07,Reprehenderit mollitia quasi sit omnis itaque voluptatem.,Headache,Neurological disorders,Mild,N,2014-06-29,48,283,2014-07-11,60,60,M,BEL,Placebo,PBO,PBO,Dr. Chelsey Weimann,801
ABC001,ABC001-801-07,Nostrum minima rerum tempora cumque non.,Lethargy,Systemic disorders,Severe,N,2014-06-09,28,284,2014-06-14,33,60,M,BEL,Placebo,PBO,PBO,Dr. Chelsey Weimann,801
ABC001,ABC001-801-07,Itaque voluptatem.,Sedation,Neurological disorders,Mild,N,2014-05-05,-7,285,,,60,M,BEL,Placebo,PBO,PBO,Dr. Chelsey Weimann,801
ABC001,ABC001-801-09,Et maxime laborum.,Lethargy,Systemic disorders,Mild,N,2014-09-05,5,286,2014-09-21,21,42,F,BEL,Treatment 10mg,TRTA,TRTA,Dr. Chelsey Weimann,801
ABC001,ABC001-801-10,Accusantium eum debitis voluptatem rem.,Lethargy,Systemic disorders,Severe,N,2014-05-23,-11,287,2014-06-02,-1,33,M,BEL,Treatment 50mg,TRTB,TRTB,Dr. Chelsey Weimann,801
ABC001,ABC001-801-10,Omnis sed et explicabo repudiandae velit.,Lethargy,Systemic disorders,Severe,N,2014-07-11,38,288,,,33,M,BEL,Treatment 50mg,TRTB,TRTB,Dr. Chelsey Weimann,801
ABC001,ABC001-801-10,Explicabo animi accusamus eos quo.,Malaise,Systemic disorders,Mild,N,2014-07-18,45,289,2014-08-02,60,33,M,BEL,Treatment 50mg,TRTB,TRTB,Dr. Chelsey Weimann,801
ABC001,ABC001-801-10,Dolorum ipsum ea enim consectetur dolorem.,Apnoea,Respiratory tract disorders,Mild,N,2014-08-07,65,290,2014-08-08,66,33,M,BEL,Treatment 50mg,TRTB,TRTB,Dr. Chelsey Weimann,801
ABC001,ABC001-801-10,Rem exercitationem quis ut.,Malaise,Systemic disorders,Mild,N,2014-07-27,54,291,,,33,M,BEL,Treatment 50mg,TRTB,TRTB,Dr. Chelsey Weimann,801
ABC001,ABC001-801-10,Totam possimus quas debitis facilis eligendi pariatur.,Teeth grinding,Behavioural disorders,Severe,N,2014-07-20,47,292,2014-08-05,63,33,M,BEL,Treatment 50mg,TRTB,TRTB,Dr. Chelsey Weimann,801
ABC001,ABC001-801-10,Iure et soluta eligendi cumque tempora nemo.,Lethargy,Systemic disorders,Mild,N,2014-07-18,45,293,,,33,M,BEL,Treatment 50mg,TRTB,TRTB,Dr. Chelsey Weimann,801
ABC001,ABC001-801-10,Omnis porro nihil sint.,Malaise,Systemic disorders,Mild,N,2014-07-22,49,294,2014-08-03,61,33,M,BEL,Treatment 50mg,TRTB,TRTB,Dr. Chelsey Weimann,801
ABC001,ABC001-801-10,Commodi sequi pariatur.,Migraine,Neurological disorders,Mild,N,2014-07-19,46,295,,,33,M,BEL,Treatment 50mg,TRTB,TRTB,Dr. Chelsey Weimann,801
ABC001,ABC001-801-10,Animi eos quibusdam ut.,Migraine,Neurological disorders,Severe,N,2014-06-07,4,296,2014-06-12,9,33,M,BEL,Treatment 50mg,TRTB,TRTB,Dr. Chelsey Weimann,801
ABC001,ABC001-801-10,Omnis qui suscipit laudantium sit.,Disorientation,Behavioural disorders,Mild,N,2014-05-21,-13,297,,,33,M,BEL,Treatment 50mg,TRTB,TRTB,Dr. Chelsey Weimann,801
ABC001,ABC001-801-10,Incidunt et eligendi perferendis eveniet aspernatur est.,Lethargy,Systemic disorders,Severe,N,2014-06-06,3,298,,,33,M,BEL,Treatment 50mg,TRTB,TRTB,Dr. Chelsey Weimann,801
ABC001,ABC001-801-10,Architecto molestiae minima aliquid aut.,Recumbency,Systemic disorders,Mild,N,2014-07-02,29,299,2014-07-11,38,33,M,BEL,Treatment 50mg,TRTB,TRTB,Dr. Chelsey Weimann,801
